time_sec,time_nsec,timestamp,frame_id,angular_vel_x,angular_vel_y,angular_vel_z,linear_acc_x,linear_acc_y,linear_acc_z,orient_x,orient_y,orient_z,orient_w,orientation_covariance,angular_velocity_covariance,linear_acceleration_covariance
33,720000000,33.72,imu_link,0.0009116936181407154,0.0005905639690789519,0.010390154947654391,-0.00013207774114983354,-2.775015697383486e-05,9.800324367001453,-4.615570796590266e-10,5.3304847850636405e-08,-4.989105559014355e-08,0.9999999999999973,0.0;0.0;0.0;0.0;0.0;0.0;0.0;0.0;0.0,7.621289842063561e-05;0.0;0.0;0.0;7.621289842063561e-05;0.0;0.0;0.0;7.621289842063561e-05,3.999999975690116e-08;0.0;0.0;0.0;3.999999975690116e-08;0.0;0.0;0.0;3.999999975690116e-08
33,740000000,33.74,imu_link,-0.008086043415212959,-0.012524590912221542,-0.008178253026884538,8.281682590060657e-07,-0.00039251197408280325,9.800290230500034,-4.6155707938125523e-10,5.330484785070262e-08,-4.989105559014674e-08,0.9999999999999973,0.0;0.0;0.0;0.0;0.0;0.0;0.0;0.0;0.0,7.621289842063561e-05;0.0;0.0;0.0;7.621289842063561e-05;0.0;0.0;0.0;7.621289842063561e-05,3.999999975690116e-08;0.0;0.0;0.0;3.999999975690116e-08;0.0;0.0;0.0;3.999999975690116e-08
33,760000000,33.76,imu_link,-0.0016907623966623097,0.012324041524291517,-0.005670714775469082,-0.00019690934904548768,0.00012960793797675297,9.800129355095759,-4.6155707960220696e-10,5.330484785039687e-08,-4.989105559015097e-08,0.9999999999999973,0.0;0.0;0.0;0.0;0.0;0.0;0.0;0.0;0.0,7.621289842063561e-05;0.0;0.0;0.0;7.621289842063561e-05;0.0;0.0;0.0;7.621289842063561e-05,3.999999975690116e-08;0.0;0.0;0.0;3.999999975690116e-08;0.0;0.0;0.0;3.999999975690116e-08
33,780000000,33.78,imu_link,0.016975002613863546,-0.008367438635625626,-0.019550616503489833,1.2692538970744913e-05,-9.739386240199245e-05,9.7998973515003,-4.6155707943437144e-10,5.330484785050326e-08,-4.989105559015889e-08,0.9999999999999973,0.0;0.0;0.0;0.0;0.0;0.0;0.0;0.0;0.0,7.621289842063561e-05;0.0;0.0;0.0;7.621289842063561e-05;0.0;0.0;0.0;7.621289842063561e-05,3.999999975690116e-08;0.0;0.0;0.0;3.999999975690116e-08;0.0;0.0;0.0;3.999999975690116e-08
33,800000000,33.8,imu_link,0.0067779339111539,0.019303528284760937,0.0033798004381472542,0.00015228276062152378,-0.0003033677759809786,9.800029008244694,-4.6155707960836506e-10,5.330484785072969e-08,-4.9891055590166316e-08,0.9999999999999973,0.0;0.0;0.0;0.0;0.0;0.0;0.0;0.0;0.0,7.621289842063561e-05;0.0;0.0;0.0;7.621289842063561e-05;0.0;0.0;0.0;7.621289842063561e-05,3.999999975690116e-08;0.0;0.0;0.0;3.999999975690116e-08;0.0;0.0;0.0;3.999999975690116e-08
33,820000000,33.82,imu_link,-0.008277722488391703,-0.01179427206726027,-0.006134605593047947,-0.00024215958147495126,-0.0002541944009710503,9.799606180904854,-4.6155707957621157e-10,5.3304847850381845e-08,-4.989105559017282e-08,0.9999999999999973,0.0;0.0;0.0;0.0;0.0;0.0;0.0;0.0;0.0,7.621289842063561e-05;0.0;0.0;0.0;7.621289842063561e-05;0.0;0.0;0.0;7.621289842063561e-05,3.999999975690116e-08;0.0;0.0;0.0;3.999999975690116e-08;0.0;0.0;0.0;3.999999975690116e-08
33,840000000,33.84,imu_link,0.004276472182942844,0.01117176647856664,-0.0098887582108589,-0.0002654305926375852,-3.7931610166434305e-05,9.799960454290183,-4.6155707940138126e-10,5.330484785049858e-08,-4.989105559018301e-08,0.9999999999999973,0.0;0.0;0.0;0.0;0.0;0.0;0.0;0.0;0.0,7.621289842063561e-05;0.0;0.0;0.0;7.621289842063561e-05;0.0;0.0;0.0;7.621289842063561e-05,3.999999975690116e-08;0.0;0.0;0.0;3.999999975690116e-08;0.0;0.0;0.0;3.999999975690116e-08
33,860000000,33.86,imu_link,-0.006644256988228236,-0.005293712398469913,0.0004129507989405623,5.45132209499735e-05,0.00022570988468275776,9.799951488365506,-4.615570796110805e-10,5.330484785064779e-08,-4.989105559018842e-08,0.9999999999999973,0.0;0.0;0.0;0.0;0.0;0.0;0.0;0.0;0.0,7.621289842063561e-05;0.0;0.0;0.0;7.621289842063561e-05;0.0;0.0;0.0;7.621289842063561e-05,3.999999975690116e-08;0.0;0.0;0.0;3.999999975690116e-08;0.0;0.0;0.0;3.999999975690116e-08
33,880000000,33.88,imu_link,0.01097765028452282,-0.0017379697866879368,-0.00735389073363476,4.900793237693843e-06,6.106459192878383e-05,9.799811687762087,-4.615570794363756e-10,5.3304847850767404e-08,-4.989105559019408e-08,0.9999999999999973,0.0;0.0;0.0;0.0;0.0;0.0;0.0;0.0;0.0,7.621289842063561e-05;0.0;0.0;0.0;7.621289842063561e-05;0.0;0.0;0.0;7.621289842063561e-05,3.999999975690116e-08;0.0;0.0;0.0;3.999999975690116e-08;0.0;0.0;0.0;3.999999975690116e-08
33,900000000,33.9,imu_link,0.0038607503917583988,-0.00034362014902308954,0.017312954021194437,0.0002617305138420738,-0.00028262533516235886,9.80028997420536,-4.6155707951876847e-10,5.330484785046844e-08,-4.9891055590203585e-08,0.9999999999999973,0.0;0.0;0.0;0.0;0.0;0.0;0.0;0.0;0.0,7.621289842063561e-05;0.0;0.0;0.0;7.621289842063561e-05;0.0;0.0;0.0;7.621289842063561e-05,3.999999975690116e-08;0.0;0.0;0.0;3.999999975690116e-08;0.0;0.0;0.0;3.999999975690116e-08
33,920000000,33.92,imu_link,0.018583689352743862,-0.0105081466853383,-0.02747874194639326,-0.0003052109944274268,-0.00016941280724466044,9.79962670580841,-4.6155707959692836e-10,5.330484785063797e-08,-4.9891055590211195e-08,0.9999999999999973,0.0;0.0;0.0;0.0;0.0;0.0;0.0;0.0;0.0,7.621289842063561e-05;0.0;0.0;0.0;7.621289842063561e-05;0.0;0.0;0.0;7.621289842063561e-05,3.999999975690116e-08;0.0;0.0;0.0;3.999999975690116e-08;0.0;0.0;0.0;3.999999975690116e-08
33,940000000,33.94,imu_link,-0.007929259116335826,0.010609684146280388,0.003148659277657132,-0.0003071413172998353,-0.00034151630562051494,9.799513604611935,-4.615570796873332e-10,5.330484785092954e-08,-4.98910555902188e-08,0.9999999999999973,0.0;0.0;0.0;0.0;0.0;0.0;0.0;0.0;0.0,7.621289842063561e-05;0.0;0.0;0.0;7.621289842063561e-05;0.0;0.0;0.0;7.621289842063561e-05,3.999999975690116e-08;0.0;0.0;0.0;3.999999975690116e-08;0.0;0.0;0.0;3.999999975690116e-08
33,960000000,33.96,imu_link,-0.010513304558593908,0.010704482636640165,0.004059551102956223,-7.435877279733377e-05,8.927980058466698e-05,9.799756029546437,-4.6155707951947933e-10,5.330484785057111e-08,-4.989105559022932e-08,0.9999999999999973,0.0;0.0;0.0;0.0;0.0;0.0;0.0;0.0;0.0,7.621289842063561e-05;0.0;0.0;0.0;7.621289842063561e-05;0.0;0.0;0.0;7.621289842063561e-05,3.999999975690116e-08;0.0;0.0;0.0;3.999999975690116e-08;0.0;0.0;0.0;3.999999975690116e-08
33,980000000,33.98,imu_link,0.0023139823117538706,0.003379117801839448,-0.0024110398386933793,-7.195642218831355e-05,-0.0003100059301257002,9.79993168455696,-4.6155707949827787e-10,5.330484785067946e-08,-4.989105559023897e-08,0.9999999999999973,0.0;0.0;0.0;0.0;0.0;0.0;0.0;0.0;0.0,7.621289842063561e-05;0.0;0.0;0.0;7.621289842063561e-05;0.0;0.0;0.0;7.621289842063561e-05,3.999999975690116e-08;0.0;0.0;0.0;3.999999975690116e-08;0.0;0.0;0.0;3.999999975690116e-08
34,0,34.0,imu_link,-0.01646390567248595,-9.160269144233006e-05,-0.002657336964454803,-4.1328863236787005e-05,-0.0003898395187997325,9.79974720471716,-4.615570793353017e-10,5.330484785078529e-08,-4.9891055590249854e-08,0.9999999999999973,0.0;0.0;0.0;0.0;0.0;0.0;0.0;0.0;0.0,7.621289842063561e-05;0.0;0.0;0.0;7.621289842063561e-05;0.0;0.0;0.0;7.621289842063561e-05,3.999999975690116e-08;0.0;0.0;0.0;3.999999975690116e-08;0.0;0.0;0.0;3.999999975690116e-08
34,20000000,34.02,imu_link,0.0008262085780628232,-0.005072134034801391,-0.003389170830217313,-0.0001277272705497716,-7.521186379874853e-05,9.80006633510432,-4.615570794096923e-10,5.330484785049298e-08,-4.989105559026037e-08,0.9999999999999973,0.0;0.0;0.0;0.0;0.0;0.0;0.0;0.0;0.0,7.621289842063561e-05;0.0;0.0;0.0;7.621289842063561e-05;0.0;0.0;0.0;7.621289842063561e-05,3.999999975690116e-08;0.0;0.0;0.0;3.999999975690116e-08;0.0;0.0;0.0;3.999999975690116e-08
34,40000000,34.04,imu_link,0.004243474593410252,0.004740455680097177,-0.005597635683553681,-0.0004411862488157948,-4.4518502299450903e-05,9.799921558259177,-4.6155707950323247e-10,5.330484785065463e-08,-4.989105559027149e-08,0.9999999999999973,0.0;0.0;0.0;0.0;0.0;0.0;0.0;0.0;0.0,7.621289842063561e-05;0.0;0.0;0.0;7.621289842063561e-05;0.0;0.0;0.0;7.621289842063561e-05,3.999999975690116e-08;0.0;0.0;0.0;3.999999975690116e-08;0.0;0.0;0.0;3.999999975690116e-08
34,60000000,34.06,imu_link,-0.01069679719285892,-0.009204967557833475,6.788327640047239e-05,-0.00016258238876547875,-1.2327152456161593e-05,9.799874815411448,-4.6155707958600926e-10,5.3304847850354965e-08,-4.9891055590281334e-08,0.9999999999999973,0.0;0.0;0.0;0.0;0.0;0.0;0.0;0.0;0.0,7.621289842063561e-05;0.0;0.0;0.0;7.621289842063561e-05;0.0;0.0;0.0;7.621289842063561e-05,3.999999975690116e-08;0.0;0.0;0.0;3.999999975690116e-08;0.0;0.0;0.0;3.999999975690116e-08
34,80000000,34.08,imu_link,-0.00893521481745556,-0.01979006769954971,0.001990157567791231,-0.00030700313245381276,4.2107189217303076e-05,9.800016604818666,-4.615570794177057e-10,5.330484785046502e-08,-4.989105559029211e-08,0.9999999999999973,0.0;0.0;0.0;0.0;0.0;0.0;0.0;0.0;0.0,7.621289842063561e-05;0.0;0.0;0.0;7.621289842063561e-05;0.0;0.0;0.0;7.621289842063561e-05,3.999999975690116e-08;0.0;0.0;0.0;3.999999975690116e-08;0.0;0.0;0.0;3.999999975690116e-08
34,100000000,34.1,imu_link,-0.01622745256139667,-0.012769186911096417,-0.009043558246986574,-0.0002602172918866202,-7.454060764483387e-05,9.800192016890037,-4.6155707950427234e-10,5.330484785062576e-08,-4.9891055590302754e-08,0.9999999999999973,0.0;0.0;0.0;0.0;0.0;0.0;0.0;0.0;0.0,7.621289842063561e-05;0.0;0.0;0.0;7.621289842063561e-05;0.0;0.0;0.0;7.621289842063561e-05,3.999999975690116e-08;0.0;0.0;0.0;3.999999975690116e-08;0.0;0.0;0.0;3.999999975690116e-08
34,120000000,34.12,imu_link,0.0038382753952070623,-0.0009259085444303555,0.006565533105953021,-0.00017311893534019513,6.717188646091991e-05,9.799805415359996,-4.6155707935392963e-10,5.330484785073565e-08,-4.9891055590312886e-08,0.9999999999999973,0.0;0.0;0.0;0.0;0.0;0.0;0.0;0.0;0.0,7.621289842063561e-05;0.0;0.0;0.0;7.621289842063561e-05;0.0;0.0;0.0;7.621289842063561e-05,3.999999975690116e-08;0.0;0.0;0.0;3.999999975690116e-08;0.0;0.0;0.0;3.999999975690116e-08
34,140000000,34.14,imu_link,0.0039784650581023125,-8.653282709261345e-05,-0.0002706693058492057,-0.00011961517421171244,-9.635117243083767e-05,9.799973614923745,-4.6155707942490245e-10,5.330484785043457e-08,-4.989105559032274e-08,0.9999999999999973,0.0;0.0;0.0;0.0;0.0;0.0;0.0;0.0;0.0,7.621289842063561e-05;0.0;0.0;0.0;7.621289842063561e-05;0.0;0.0;0.0;7.621289842063561e-05,3.999999975690116e-08;0.0;0.0;0.0;3.999999975690116e-08;0.0;0.0;0.0;3.999999975690116e-08
34,160000000,34.16,imu_link,-0.005112074664561936,0.002389869656680144,0.005562954744226639,3.4131467921499876e-05,-0.00020753945332185102,9.799928784824079,-4.6155707963384015e-10,5.330484785047576e-08,-4.989105559033076e-08,0.9999999999999973,0.0;0.0;0.0;0.0;0.0;0.0;0.0;0.0;0.0,7.621289842063561e-05;0.0;0.0;0.0;7.621289842063561e-05;0.0;0.0;0.0;7.621289842063561e-05,3.999999975690116e-08;0.0;0.0;0.0;3.999999975690116e-08;0.0;0.0;0.0;3.999999975690116e-08
34,180000000,34.18,imu_link,-0.0010671572937610912,-0.01329060920892447,-0.019422498887444066,-0.00013667571933354293,-0.00020770721012917215,9.799660782135428,-4.615570794401676e-10,5.330484785077599e-08,-4.989105559033863e-08,0.9999999999999973,0.0;0.0;0.0;0.0;0.0;0.0;0.0;0.0;0.0,7.621289842063561e-05;0.0;0.0;0.0;7.621289842063561e-05;0.0;0.0;0.0;7.621289842063561e-05,3.999999975690116e-08;0.0;0.0;0.0;3.999999975690116e-08;0.0;0.0;0.0;3.999999975690116e-08
34,200000000,34.2,imu_link,0.014545057491914096,0.01697406699916069,-0.003999347896384199,-0.00022776936039902367,4.38628217085206e-05,9.7998730175775,-4.6155707955266887e-10,5.33048478502825e-08,-4.989105559034787e-08,0.9999999999999973,0.0;0.0;0.0;0.0;0.0;0.0;0.0;0.0;0.0,7.621289842063561e-05;0.0;0.0;0.0;7.621289842063561e-05;0.0;0.0;0.0;7.621289842063561e-05,3.999999975690116e-08;0.0;0.0;0.0;3.999999975690116e-08;0.0;0.0;0.0;3.999999975690116e-08
34,220000000,34.22,imu_link,-0.01913004719543885,0.013002569228741117,-0.001920819663195589,-0.00025054503214380104,0.00012452814099597802,9.79984871228513,-4.6155707963762156e-10,5.3304847850568245e-08,-4.989105559035571e-08,0.9999999999999973,0.0;0.0;0.0;0.0;0.0;0.0;0.0;0.0;0.0,7.621289842063561e-05;0.0;0.0;0.0;7.621289842063561e-05;0.0;0.0;0.0;7.621289842063561e-05,3.999999975690116e-08;0.0;0.0;0.0;3.999999975690116e-08;0.0;0.0;0.0;3.999999975690116e-08
34,240000000,34.24,imu_link,0.00671642884197124,0.010722398775387859,0.003678797988221114,-0.0002318911189383286,-0.00017229522485960158,9.799756204175353,-4.615570796049013e-10,5.330484785066461e-08,-4.989105559036493e-08,0.9999999999999973,0.0;0.0;0.0;0.0;0.0;0.0;0.0;0.0;0.0,7.621289842063561e-05;0.0;0.0;0.0;7.621289842063561e-05;0.0;0.0;0.0;7.621289842063561e-05,3.999999975690116e-08;0.0;0.0;0.0;3.999999975690116e-08;0.0;0.0;0.0;3.999999975690116e-08
34,260000000,34.26,imu_link,-0.0035207927639186675,7.670267639150404e-05,0.0005554507308568942,-3.526044038719344e-05,-0.00025686302404478084,9.79992794020987,-4.615570793904351e-10,5.3304847850844616e-08,-4.98910555903733e-08,0.9999999999999973,0.0;0.0;0.0;0.0;0.0;0.0;0.0;0.0;0.0,7.621289842063561e-05;0.0;0.0;0.0;7.621289842063561e-05;0.0;0.0;0.0;7.621289842063561e-05,3.999999975690116e-08;0.0;0.0;0.0;3.999999975690116e-08;0.0;0.0;0.0;3.999999975690116e-08
34,280000000,34.28,imu_link,0.0017657255543967226,-0.01644593974151252,0.004360559406045947,-1.21906232340024e-05,4.1970415735156905e-05,9.799974648352963,-4.6155707950250667e-10,5.330484785036509e-08,-4.989105559038224e-08,0.9999999999999973,0.0;0.0;0.0;0.0;0.0;0.0;0.0;0.0;0.0,7.621289842063561e-05;0.0;0.0;0.0;7.621289842063561e-05;0.0;0.0;0.0;7.621289842063561e-05,3.999999975690116e-08;0.0;0.0;0.0;3.999999975690116e-08;0.0;0.0;0.0;3.999999975690116e-08
34,300000000,34.3,imu_link,-0.006585278210771779,0.0166590462369802,-0.006869369987439508,0.0002760648426891828,0.00011881054260853442,9.799994509967833,-4.6155707944082304e-10,5.330484785066979e-08,-4.989105559038968e-08,0.9999999999999973,0.0;0.0;0.0;0.0;0.0;0.0;0.0;0.0;0.0,7.621289842063561e-05;0.0;0.0;0.0;7.621289842063561e-05;0.0;0.0;0.0;7.621289842063561e-05,3.999999975690116e-08;0.0;0.0;0.0;3.999999975690116e-08;0.0;0.0;0.0;3.999999975690116e-08
34,320000000,34.32,imu_link,0.01224936976646095,0.0031451891048705966,0.009881782440794488,-2.8344875168565762e-05,-0.00011959699914474319,9.799768858689502,-4.615570795325403e-10,5.330484785082415e-08,-4.989105559039875e-08,0.9999999999999973,0.0;0.0;0.0;0.0;0.0;0.0;0.0;0.0;0.0,7.621289842063561e-05;0.0;0.0;0.0;7.621289842063561e-05;0.0;0.0;0.0;7.621289842063561e-05,3.999999975690116e-08;0.0;0.0;0.0;3.999999975690116e-08;0.0;0.0;0.0;3.999999975690116e-08
34,340000000,34.34,imu_link,-0.005403183333276356,0.01598879323620026,0.0001592750252748021,-0.00023609028002492203,-0.0001260326124806656,9.799906286727701,-4.615570794998523e-10,5.3304847850460176e-08,-4.9891055590406205e-08,0.9999999999999973,0.0;0.0;0.0;0.0;0.0;0.0;0.0;0.0;0.0,7.621289842063561e-05;0.0;0.0;0.0;7.621289842063561e-05;0.0;0.0;0.0;7.621289842063561e-05,3.999999975690116e-08;0.0;0.0;0.0;3.999999975690116e-08;0.0;0.0;0.0;3.999999975690116e-08
34,360000000,34.36,imu_link,0.009330469395013792,-0.002109327670684394,0.011350338035150434,-9.611259990424454e-05,-0.0003277040183475292,9.800049044940515,-4.6155707937023894e-10,5.330484785051244e-08,-4.989105559041311e-08,0.9999999999999973,0.0;0.0;0.0;0.0;0.0;0.0;0.0;0.0;0.0,7.621289842063561e-05;0.0;0.0;0.0;7.621289842063561e-05;0.0;0.0;0.0;7.621289842063561e-05,3.999999975690116e-08;0.0;0.0;0.0;3.999999975690116e-08;0.0;0.0;0.0;3.999999975690116e-08
34,380000000,34.38,imu_link,-0.00933069229475261,-0.002192309925507793,-0.006729743127265328,-9.483132389873495e-06,-0.00026068745064254846,9.799965786331873,-4.6155707969839757e-10,5.3304847850850625e-08,-4.989105559042015e-08,0.9999999999999973,0.0;0.0;0.0;0.0;0.0;0.0;0.0;0.0;0.0,7.621289842063561e-05;0.0;0.0;0.0;7.621289842063561e-05;0.0;0.0;0.0;7.621289842063561e-05,3.999999975690116e-08;0.0;0.0;0.0;3.999999975690116e-08;0.0;0.0;0.0;3.999999975690116e-08
34,400000000,34.4,imu_link,-0.0280260161550908,0.01539569641408926,-0.010861956896439307,-0.00011603026010416067,0.00025014219100322665,9.800386280088677,-4.615570794545776e-10,5.330484785025003e-08,-4.989105559042832e-08,0.9999999999999973,0.0;0.0;0.0;0.0;0.0;0.0;0.0;0.0;0.0,7.621289842063561e-05;0.0;0.0;0.0;7.621289842063561e-05;0.0;0.0;0.0;7.621289842063561e-05,3.999999975690116e-08;0.0;0.0;0.0;3.999999975690116e-08;0.0;0.0;0.0;3.999999975690116e-08
34,420000000,34.42,imu_link,0.006951850980725434,-0.005444454744231513,-0.00017609288555776035,-0.0003329054424074271,-1.8712748838670292e-05,9.800084547101225,-4.615570796253008e-10,5.330484785057481e-08,-4.9891055590436546e-08,0.9999999999999973,0.0;0.0;0.0;0.0;0.0;0.0;0.0;0.0;0.0,7.621289842063561e-05;0.0;0.0;0.0;7.621289842063561e-05;0.0;0.0;0.0;7.621289842063561e-05,3.999999975690116e-08;0.0;0.0;0.0;3.999999975690116e-08;0.0;0.0;0.0;3.999999975690116e-08
34,440000000,34.44,imu_link,-0.0035720671028979393,5.21764560518324e-05,-0.008234712928220029,-0.00018563312814729615,0.00035378455605612584,9.800015520216975,-4.615570794509815e-10,5.3304847850687664e-08,-4.989105559044477e-08,0.9999999999999973,0.0;0.0;0.0;0.0;0.0;0.0;0.0;0.0;0.0,7.621289842063561e-05;0.0;0.0;0.0;7.621289842063561e-05;0.0;0.0;0.0;7.621289842063561e-05,3.999999975690116e-08;0.0;0.0;0.0;3.999999975690116e-08;0.0;0.0;0.0;3.999999975690116e-08
34,460000000,34.46,imu_link,0.003287064249968346,0.00982508514489985,-0.00044190755455505076,-0.00024175165333319444,-3.4286111511912595e-05,9.800330474715436,-4.615570794230687e-10,5.330484785033054e-08,-4.9891055590452117e-08,0.9999999999999973,0.0;0.0;0.0;0.0;0.0;0.0;0.0;0.0;0.0,7.621289842063561e-05;0.0;0.0;0.0;7.621289842063561e-05;0.0;0.0;0.0;7.621289842063561e-05,3.999999975690116e-08;0.0;0.0;0.0;3.999999975690116e-08;0.0;0.0;0.0;3.999999975690116e-08
34,480000000,34.48,imu_link,-0.0042119309863537365,-0.0036594795966519524,0.006628506822995649,6.175114626518205e-05,-5.726014542576634e-05,9.799594498401744,-4.6155707938876184e-10,5.3304847850430874e-08,-4.989105559046e-08,0.9999999999999973,0.0;0.0;0.0;0.0;0.0;0.0;0.0;0.0;0.0,7.621289842063561e-05;0.0;0.0;0.0;7.621289842063561e-05;0.0;0.0;0.0;7.621289842063561e-05,3.999999975690116e-08;0.0;0.0;0.0;3.999999975690116e-08;0.0;0.0;0.0;3.999999975690116e-08
34,500000000,34.5,imu_link,-0.0020477729199329256,0.013148628699008682,-0.002926637180676872,-0.00018547515184472158,-0.00026303295462284324,9.79973665203437,-4.615570794327313e-10,5.3304847850660115e-08,-4.989105559046826e-08,0.9999999999999973,0.0;0.0;0.0;0.0;0.0;0.0;0.0;0.0;0.0,7.621289842063561e-05;0.0;0.0;0.0;7.621289842063561e-05;0.0;0.0;0.0;7.621289842063561e-05,3.999999975690116e-08;0.0;0.0;0.0;3.999999975690116e-08;0.0;0.0;0.0;3.999999975690116e-08
34,520000000,34.52,imu_link,0.023200022196966714,0.004332833320451246,0.005134765169313925,-7.005639218591079e-05,6.586443836370764e-05,9.80005801147302,-4.6155707935645516e-10,5.330484785083028e-08,-4.989105559047616e-08,0.9999999999999973,0.0;0.0;0.0;0.0;0.0;0.0;0.0;0.0;0.0,7.621289842063561e-05;0.0;0.0;0.0;7.621289842063561e-05;0.0;0.0;0.0;7.621289842063561e-05,3.999999975690116e-08;0.0;0.0;0.0;3.999999975690116e-08;0.0;0.0;0.0;3.999999975690116e-08
34,540000000,34.54,imu_link,-0.0035666548062192323,0.0057291289802928955,-0.01519833197053091,-0.00029243657233114437,-0.0002913146098231694,9.799969296804308,-4.6155707943387653e-10,5.33048478505214e-08,-4.989105559048508e-08,0.9999999999999973,0.0;0.0;0.0;0.0;0.0;0.0;0.0;0.0;0.0,7.621289842063561e-05;0.0;0.0;0.0;7.621289842063561e-05;0.0;0.0;0.0;7.621289842063561e-05,3.999999975690116e-08;0.0;0.0;0.0;3.999999975690116e-08;0.0;0.0;0.0;3.999999975690116e-08
34,560000000,34.56,imu_link,-0.00111750092714897,-0.006843775037328968,0.0005519588507171873,1.840250291981158e-05,-0.00019008326249499115,9.799683992447294,-4.615570796059832e-10,5.330484785073391e-08,-4.9891055590494376e-08,0.9999999999999973,0.0;0.0;0.0;0.0;0.0;0.0;0.0;0.0;0.0,7.621289842063561e-05;0.0;0.0;0.0;7.621289842063561e-05;0.0;0.0;0.0;7.621289842063561e-05,3.999999975690116e-08;0.0;0.0;0.0;3.999999975690116e-08;0.0;0.0;0.0;3.999999975690116e-08
34,580000000,34.58,imu_link,-0.0014266945935056926,0.01916432177749811,0.009152305476899906,-0.0006619151939651635,-2.6734754619168414e-05,9.800020084113875,-4.6155707943408307e-10,5.3304847850834445e-08,-4.989105559050357e-08,0.9999999999999973,0.0;0.0;0.0;0.0;0.0;0.0;0.0;0.0;0.0,7.621289842063561e-05;0.0;0.0;0.0;7.621289842063561e-05;0.0;0.0;0.0;7.621289842063561e-05,3.999999975690116e-08;0.0;0.0;0.0;3.999999975690116e-08;0.0;0.0;0.0;3.999999975690116e-08
34,600000000,34.6,imu_link,-0.005792189952098539,-0.004743770916887902,-0.007725332937051809,-0.00016105400356796357,-5.709165163842007e-05,9.800050983195684,-4.615570794244108e-10,5.330484785048214e-08,-4.989105559051122e-08,0.9999999999999973,0.0;0.0;0.0;0.0;0.0;0.0;0.0;0.0;0.0,7.621289842063561e-05;0.0;0.0;0.0;7.621289842063561e-05;0.0;0.0;0.0;7.621289842063561e-05,3.999999975690116e-08;0.0;0.0;0.0;3.999999975690116e-08;0.0;0.0;0.0;3.999999975690116e-08
34,620000000,34.62,imu_link,0.014533600286272414,-0.0039571173373055156,0.011073926511687992,-0.0004190053640655234,-6.1321091532136e-05,9.800065808400804,-4.6155707949704743e-10,5.330484785063302e-08,-4.9891055590520766e-08,0.9999999999999973,0.0;0.0;0.0;0.0;0.0;0.0;0.0;0.0;0.0,7.621289842063561e-05;0.0;0.0;0.0;7.621289842063561e-05;0.0;0.0;0.0;7.621289842063561e-05,3.999999975690116e-08;0.0;0.0;0.0;3.999999975690116e-08;0.0;0.0;0.0;3.999999975690116e-08
34,640000000,34.64,imu_link,0.004336520361867032,0.00742787455628248,-0.005582946481683645,-0.0005416897734265228,0.00014787953033778601,9.799671303308676,-4.6155707942675094e-10,5.330484785080572e-08,-4.9891055590529647e-08,0.9999999999999973,0.0;0.0;0.0;0.0;0.0;0.0;0.0;0.0;0.0,7.621289842063561e-05;0.0;0.0;0.0;7.621289842063561e-05;0.0;0.0;0.0;7.621289842063561e-05,3.999999975690116e-08;0.0;0.0;0.0;3.999999975690116e-08;0.0;0.0;0.0;3.999999975690116e-08
34,660000000,34.66,imu_link,-0.006919073819937729,0.008103503665161837,0.014848975876906114,-0.0002509974861913157,-6.786832129449082e-05,9.799920313740815,-4.6155707955349564e-10,5.3304847850326285e-08,-4.9891055590539275e-08,0.9999999999999973,0.0;0.0;0.0;0.0;0.0;0.0;0.0;0.0;0.0,7.621289842063561e-05;0.0;0.0;0.0;7.621289842063561e-05;0.0;0.0;0.0;7.621289842063561e-05,3.999999975690116e-08;0.0;0.0;0.0;3.999999975690116e-08;0.0;0.0;0.0;3.999999975690116e-08
34,680000000,34.68,imu_link,-0.021918559363624315,0.006904068130815069,-0.008914492190602136,7.558816429645063e-05,-7.939736316105616e-05,9.79986989402066,-4.6155707960246276e-10,5.330484785066644e-08,-4.9891055590548076e-08,0.9999999999999973,0.0;0.0;0.0;0.0;0.0;0.0;0.0;0.0;0.0,7.621289842063561e-05;0.0;0.0;0.0;7.621289842063561e-05;0.0;0.0;0.0;7.621289842063561e-05,3.999999975690116e-08;0.0;0.0;0.0;3.999999975690116e-08;0.0;0.0;0.0;3.999999975690116e-08
34,700000000,34.7,imu_link,-0.007862312335667256,-0.0023327593435761304,0.002059243020202555,0.00018494054094665854,-0.00036013857283178296,9.800037867814023,-4.6155707957269124e-10,5.33048478506535e-08,-4.9891055590557096e-08,0.9999999999999973,0.0;0.0;0.0;0.0;0.0;0.0;0.0;0.0;0.0,7.621289842063561e-05;0.0;0.0;0.0;7.621289842063561e-05;0.0;0.0;0.0;7.621289842063561e-05,3.999999975690116e-08;0.0;0.0;0.0;3.999999975690116e-08;0.0;0.0;0.0;3.999999975690116e-08
34,720000000,34.72,imu_link,-0.009636109353839833,-0.0004498645308763918,0.009347375388955704,-0.0004512494250571076,0.00010598422272411069,9.799740671593694,-4.615570793727589e-10,5.3304847850834524e-08,-4.989105559056684e-08,0.9999999999999973,0.0;0.0;0.0;0.0;0.0;0.0;0.0;0.0;0.0,7.621289842063561e-05;0.0;0.0;0.0;7.621289842063561e-05;0.0;0.0;0.0;7.621289842063561e-05,3.999999975690116e-08;0.0;0.0;0.0;3.999999975690116e-08;0.0;0.0;0.0;3.999999975690116e-08
34,740000000,34.74,imu_link,-0.0036441365267308357,0.0053551430266339985,-0.00047913672845930233,5.550834510345781e-05,-0.00019413539367992613,9.79992772294807,-4.615570794329923e-10,5.330484785051589e-08,-4.989105559057672e-08,0.9999999999999973,0.0;0.0;0.0;0.0;0.0;0.0;0.0;0.0;0.0,7.621289842063561e-05;0.0;0.0;0.0;7.621289842063561e-05;0.0;0.0;0.0;7.621289842063561e-05,3.999999975690116e-08;0.0;0.0;0.0;3.999999975690116e-08;0.0;0.0;0.0;3.999999975690116e-08
34,760000000,34.76,imu_link,-0.003421785404876578,0.013578902563283915,0.010909128960974358,-0.00017954503429010673,-2.763620764791387e-05,9.799760462850683,-4.6155707953989704e-10,5.330484785061172e-08,-4.989105559058658e-08,0.9999999999999973,0.0;0.0;0.0;0.0;0.0;0.0;0.0;0.0;0.0,7.621289842063561e-05;0.0;0.0;0.0;7.621289842063561e-05;0.0;0.0;0.0;7.621289842063561e-05,3.999999975690116e-08;0.0;0.0;0.0;3.999999975690116e-08;0.0;0.0;0.0;3.999999975690116e-08
34,780000000,34.78,imu_link,0.003364127333367044,-0.0009964435944097016,-0.00018374762075483594,4.345966979691847e-05,-0.000304121379600803,9.799808241086339,-4.615570796137463e-10,5.3304847850308094e-08,-4.989105559059802e-08,0.9999999999999973,0.0;0.0;0.0;0.0;0.0;0.0;0.0;0.0;0.0,7.621289842063561e-05;0.0;0.0;0.0;7.621289842063561e-05;0.0;0.0;0.0;7.621289842063561e-05,3.999999975690116e-08;0.0;0.0;0.0;3.999999975690116e-08;0.0;0.0;0.0;3.999999975690116e-08
34,800000000,34.8,imu_link,0.018417871558179172,-0.007872868761331647,0.02255621032683663,-0.00025487795639959193,-9.383679316035743e-05,9.799697387493298,-4.615570795875398e-10,5.3304847850415475e-08,-4.9891055590608566e-08,0.9999999999999973,0.0;0.0;0.0;0.0;0.0;0.0;0.0;0.0;0.0,7.621289842063561e-05;0.0;0.0;0.0;7.621289842063561e-05;0.0;0.0;0.0;7.621289842063561e-05,3.999999975690116e-08;0.0;0.0;0.0;3.999999975690116e-08;0.0;0.0;0.0;3.999999975690116e-08
34,820000000,34.82,imu_link,0.004997936789191526,-0.0019913858734831678,-0.0034603365756256245,-5.283621879819201e-05,-0.00015813881182191053,9.799716538484644,-4.615570796637318e-10,5.330484785069363e-08,-4.9891055590619326e-08,0.9999999999999973,0.0;0.0;0.0;0.0;0.0;0.0;0.0;0.0;0.0,7.621289842063561e-05;0.0;0.0;0.0;7.621289842063561e-05;0.0;0.0;0.0;7.621289842063561e-05,3.999999975690116e-08;0.0;0.0;0.0;3.999999975690116e-08;0.0;0.0;0.0;3.999999975690116e-08
34,840000000,34.84,imu_link,0.010183649271986991,-0.0054181448230260195,-0.008702809817239424,-0.00010664080743461804,0.000212077102715678,9.79993345633918,-4.615570793883122e-10,5.330484785028519e-08,-4.989105559062955e-08,0.9999999999999973,0.0;0.0;0.0;0.0;0.0;0.0;0.0;0.0;0.0,7.621289842063561e-05;0.0;0.0;0.0;7.621289842063561e-05;0.0;0.0;0.0;7.621289842063561e-05,3.999999975690116e-08;0.0;0.0;0.0;3.999999975690116e-08;0.0;0.0;0.0;3.999999975690116e-08
34,860000000,34.86,imu_link,0.003936084091242646,0.003573180335997886,-0.010316756941670526,-1.1528996344373313e-06,-0.00029268044949698024,9.799900318384083,-4.61557079375026e-10,5.33048478503806e-08,-4.989105559063842e-08,0.9999999999999973,0.0;0.0;0.0;0.0;0.0;0.0;0.0;0.0;0.0,7.621289842063561e-05;0.0;0.0;0.0;7.621289842063561e-05;0.0;0.0;0.0;7.621289842063561e-05,3.999999975690116e-08;0.0;0.0;0.0;3.999999975690116e-08;0.0;0.0;0.0;3.999999975690116e-08
34,880000000,34.88,imu_link,-0.002388118581278573,-0.0006785534317768725,-0.0021036681416404628,-0.00043770198110866407,-0.0002839594570491625,9.800237799604005,-4.615570795531361e-10,5.330484785071507e-08,-4.9891055590648694e-08,0.9999999999999973,0.0;0.0;0.0;0.0;0.0;0.0;0.0;0.0;0.0,7.621289842063561e-05;0.0;0.0;0.0;7.621289842063561e-05;0.0;0.0;0.0;7.621289842063561e-05,3.999999975690116e-08;0.0;0.0;0.0;3.999999975690116e-08;0.0;0.0;0.0;3.999999975690116e-08
34,900000000,34.9,imu_link,-0.0019237240704241437,-0.003007056794121163,0.011530840693103634,-0.00020085948760658636,0.00014214920296976653,9.800221342640539,-4.6155707953029906e-10,5.330484785081289e-08,-4.9891055590660235e-08,0.9999999999999973,0.0;0.0;0.0;0.0;0.0;0.0;0.0;0.0;0.0,7.621289842063561e-05;0.0;0.0;0.0;7.621289842063561e-05;0.0;0.0;0.0;7.621289842063561e-05,3.999999975690116e-08;0.0;0.0;0.0;3.999999975690116e-08;0.0;0.0;0.0;3.999999975690116e-08
34,920000000,34.92,imu_link,-0.008569148900924469,-0.0036991548282798983,0.009921479829758117,0.00014695010394167172,-9.607028657569805e-05,9.800067480995237,-4.6155707941929385e-10,5.330484785027854e-08,-4.98910555906708e-08,0.9999999999999973,0.0;0.0;0.0;0.0;0.0;0.0;0.0;0.0;0.0,7.621289842063561e-05;0.0;0.0;0.0;7.621289842063561e-05;0.0;0.0;0.0;7.621289842063561e-05,3.999999975690116e-08;0.0;0.0;0.0;3.999999975690116e-08;0.0;0.0;0.0;3.999999975690116e-08
34,940000000,34.94,imu_link,0.0014723192117442033,-0.007926603144381004,0.001900975523114531,0.00014427484529860055,-0.00016155739908965883,9.799802502029248,-4.6155707946965995e-10,5.330484785062927e-08,-4.9891055590679505e-08,0.9999999999999973,0.0;0.0;0.0;0.0;0.0;0.0;0.0;0.0;0.0,7.621289842063561e-05;0.0;0.0;0.0;7.621289842063561e-05;0.0;0.0;0.0;7.621289842063561e-05,3.999999975690116e-08;0.0;0.0;0.0;3.999999975690116e-08;0.0;0.0;0.0;3.999999975690116e-08
34,960000000,34.96,imu_link,0.0008444570205454689,0.005105065058289672,-0.012647644017569229,0.00011920562547378466,4.0270648986189935e-05,9.799746910144401,-4.615570794463582e-10,5.330484785072882e-08,-4.9891055590686e-08,0.9999999999999973,0.0;0.0;0.0;0.0;0.0;0.0;0.0;0.0;0.0,7.621289842063561e-05;0.0;0.0;0.0;7.621289842063561e-05;0.0;0.0;0.0;7.621289842063561e-05,3.999999975690116e-08;0.0;0.0;0.0;3.999999975690116e-08;0.0;0.0;0.0;3.999999975690116e-08
34,980000000,34.98,imu_link,-0.005811229537924215,-0.013889245723822075,0.015135014193253535,-7.23299809108758e-05,-5.025228356644705e-05,9.799923676523198,-4.615570793932847e-10,5.3304847850368564e-08,-4.989105559069314e-08,0.9999999999999973,0.0;0.0;0.0;0.0;0.0;0.0;0.0;0.0;0.0,7.621289842063561e-05;0.0;0.0;0.0;7.621289842063561e-05;0.0;0.0;0.0;7.621289842063561e-05,3.999999975690116e-08;0.0;0.0;0.0;3.999999975690116e-08;0.0;0.0;0.0;3.999999975690116e-08
35,0,35.0,imu_link,0.006479769067102343,0.013675843541720198,0.009942597398882392,0.0003770332543276552,-0.00022391266572810014,9.79993135464028,-4.6155707950920916e-10,5.330484785047116e-08,-4.9891055590702104e-08,0.9999999999999973,0.0;0.0;0.0;0.0;0.0;0.0;0.0;0.0;0.0,7.621289842063561e-05;0.0;0.0;0.0;7.621289842063561e-05;0.0;0.0;0.0;7.621289842063561e-05,3.999999975690116e-08;0.0;0.0;0.0;3.999999975690116e-08;0.0;0.0;0.0;3.999999975690116e-08
35,20000000,35.02,imu_link,-0.009230687177681924,0.007983087963305205,0.004551965572014822,-0.0002847712786892707,-6.530784159318012e-05,9.800307397759578,-4.6155707945251906e-10,5.3304847850759066e-08,-4.989105559070963e-08,0.9999999999999973,0.0;0.0;0.0;0.0;0.0;0.0;0.0;0.0;0.0,7.621289842063561e-05;0.0;0.0;0.0;7.621289842063561e-05;0.0;0.0;0.0;7.621289842063561e-05,3.999999975690116e-08;0.0;0.0;0.0;3.999999975690116e-08;0.0;0.0;0.0;3.999999975690116e-08
35,40000000,35.04,imu_link,-0.0062615998195731356,-0.012191700772170999,0.0066077615005268224,3.935982164683056e-05,7.259146180647637e-05,9.799734885316328,-4.6155707958184586e-10,5.330484785039572e-08,-4.989105559071637e-08,0.9999999999999973,0.0;0.0;0.0;0.0;0.0;0.0;0.0;0.0;0.0,7.621289842063561e-05;0.0;0.0;0.0;7.621289842063561e-05;0.0;0.0;0.0;7.621289842063561e-05,3.999999975690116e-08;0.0;0.0;0.0;3.999999975690116e-08;0.0;0.0;0.0;3.999999975690116e-08
35,60000000,35.06,imu_link,0.0067064726560642956,0.0008307534601510557,-0.007050858905814539,-0.00011356146447181677,-0.00032124529887923284,9.799749040377336,-4.61557079423898e-10,5.330484785051067e-08,-4.989105559072418e-08,0.9999999999999973,0.0;0.0;0.0;0.0;0.0;0.0;0.0;0.0;0.0,7.621289842063561e-05;0.0;0.0;0.0;7.621289842063561e-05;0.0;0.0;0.0;7.621289842063561e-05,3.999999975690116e-08;0.0;0.0;0.0;3.999999975690116e-08;0.0;0.0;0.0;3.999999975690116e-08
35,80000000,35.08,imu_link,0.007211426444185192,-0.003466599048596532,0.007132948867649835,-8.187718216698105e-06,4.715757348024025e-05,9.800043263668602,-4.6155707953747237e-10,5.330484785060685e-08,-4.989105559073359e-08,0.9999999999999973,0.0;0.0;0.0;0.0;0.0;0.0;0.0;0.0;0.0,7.621289842063561e-05;0.0;0.0;0.0;7.621289842063561e-05;0.0;0.0;0.0;7.621289842063561e-05,3.999999975690116e-08;0.0;0.0;0.0;3.999999975690116e-08;0.0;0.0;0.0;3.999999975690116e-08
35,100000000,35.1,imu_link,0.007145494571378952,-0.011598504783383118,0.007277137024266442,-0.0003114047393377226,-0.0002071063907165052,9.800419209871826,-4.615570796094289e-10,5.330484785029856e-08,-4.9891055590742106e-08,0.9999999999999973,0.0;0.0;0.0;0.0;0.0;0.0;0.0;0.0;0.0,7.621289842063561e-05;0.0;0.0;0.0;7.621289842063561e-05;0.0;0.0;0.0;7.621289842063561e-05,3.999999975690116e-08;0.0;0.0;0.0;3.999999975690116e-08;0.0;0.0;0.0;3.999999975690116e-08
35,120000000,35.12,imu_link,-0.0101661749147239,0.0030333108569945777,-0.010730688542352314,5.605850518154198e-05,-8.840790417575267e-06,9.800002105134698,-4.615570794432688e-10,5.330484785028552e-08,-4.989105559075021e-08,0.9999999999999973,0.0;0.0;0.0;0.0;0.0;0.0;0.0;0.0;0.0,7.621289842063561e-05;0.0;0.0;0.0;7.621289842063561e-05;0.0;0.0;0.0;7.621289842063561e-05,3.999999975690116e-08;0.0;0.0;0.0;3.999999975690116e-08;0.0;0.0;0.0;3.999999975690116e-08
35,140000000,35.14,imu_link,-0.006384454568363046,0.0005199832303895829,-0.01785727863302423,0.0001764015425810361,-0.00022288713750043173,9.799750889322452,-4.6155707949569804e-10,5.330484785063298e-08,-4.9891055590757604e-08,0.9999999999999973,0.0;0.0;0.0;0.0;0.0;0.0;0.0;0.0;0.0,7.621289842063561e-05;0.0;0.0;0.0;7.621289842063561e-05;0.0;0.0;0.0;7.621289842063561e-05,3.999999975690116e-08;0.0;0.0;0.0;3.999999975690116e-08;0.0;0.0;0.0;3.999999975690116e-08
35,160000000,35.16,imu_link,0.011372796941500252,0.0030454990255952678,-0.008849805469079864,-4.339649848612883e-05,-5.4107833153623466e-05,9.800139381765435,-4.6155707946335885e-10,5.3304847850269335e-08,-4.989105559076371e-08,0.9999999999999973,0.0;0.0;0.0;0.0;0.0;0.0;0.0;0.0;0.0,7.621289842063561e-05;0.0;0.0;0.0;7.621289842063561e-05;0.0;0.0;0.0;7.621289842063561e-05,3.999999975690116e-08;0.0;0.0;0.0;3.999999975690116e-08;0.0;0.0;0.0;3.999999975690116e-08
35,180000000,35.18,imu_link,0.011183307863853315,-0.002966640252966679,0.008154514287458893,-0.00012678247284994378,-0.0003704800111819171,9.799779390090281,-4.615570795687616e-10,5.330484785036229e-08,-4.989105559077066e-08,0.9999999999999973,0.0;0.0;0.0;0.0;0.0;0.0;0.0;0.0;0.0,7.621289842063561e-05;0.0;0.0;0.0;7.621289842063561e-05;0.0;0.0;0.0;7.621289842063561e-05,3.999999975690116e-08;0.0;0.0;0.0;3.999999975690116e-08;0.0;0.0;0.0;3.999999975690116e-08
35,200000000,35.2,imu_link,0.006473974814947223,0.0047324340519680425,-0.019287983555228885,4.320073702132612e-06,0.00012141253978870172,9.799774925544286,-4.6155707964074055e-10,5.330484785065224e-08,-4.9891055590775174e-08,0.9999999999999973,0.0;0.0;0.0;0.0;0.0;0.0;0.0;0.0;0.0,7.621289842063561e-05;0.0;0.0;0.0;7.621289842063561e-05;0.0;0.0;0.0;7.621289842063561e-05,3.999999975690116e-08;0.0;0.0;0.0;3.999999975690116e-08;0.0;0.0;0.0;3.999999975690116e-08
35,220000000,35.22,imu_link,-0.01116804420187089,-0.012604576050446693,-0.0047197019548767954,-6.247415488795194e-06,-0.00033775312097379244,9.799847958128812,-4.6155707946579914e-10,5.330484785076103e-08,-4.9891055590780785e-08,0.9999999999999973,0.0;0.0;0.0;0.0;0.0;0.0;0.0;0.0;0.0,7.621289842063561e-05;0.0;0.0;0.0;7.621289842063561e-05;0.0;0.0;0.0;7.621289842063561e-05,3.999999975690116e-08;0.0;0.0;0.0;3.999999975690116e-08;0.0;0.0;0.0;3.999999975690116e-08
35,240000000,35.24,imu_link,-0.0016614937691892093,0.0027705612394827487,0.01277748653868651,-4.0154255386099504e-05,-0.0002283403802338657,9.799776911167514,-4.6155707957474203e-10,5.330484785039035e-08,-4.989105559078705e-08,0.9999999999999973,0.0;0.0;0.0;0.0;0.0;0.0;0.0;0.0;0.0,7.621289842063561e-05;0.0;0.0;0.0;7.621289842063561e-05;0.0;0.0;0.0;7.621289842063561e-05,3.999999975690116e-08;0.0;0.0;0.0;3.999999975690116e-08;0.0;0.0;0.0;3.999999975690116e-08
35,260000000,35.26,imu_link,0.0023257695200750573,0.010296881266206216,0.001574411504964634,-3.938323937382549e-05,-0.00032815434831090203,9.799612264160881,-4.6155707941579385e-10,5.330484785050743e-08,-4.9891055590792326e-08,0.9999999999999973,0.0;0.0;0.0;0.0;0.0;0.0;0.0;0.0;0.0,7.621289842063561e-05;0.0;0.0;0.0;7.621289842063561e-05;0.0;0.0;0.0;7.621289842063561e-05,3.999999975690116e-08;0.0;0.0;0.0;3.999999975690116e-08;0.0;0.0;0.0;3.999999975690116e-08
35,280000000,35.28,imu_link,0.012002284765111245,-0.006456587759709672,0.002877201806205476,-0.0003356078930750401,-7.01172908880733e-05,9.800162391890677,-4.6155707934907966e-10,5.330484785079814e-08,-4.9891055590797144e-08,0.9999999999999973,0.0;0.0;0.0;0.0;0.0;0.0;0.0;0.0;0.0,7.621289842063561e-05;0.0;0.0;0.0;7.621289842063561e-05;0.0;0.0;0.0;7.621289842063561e-05,3.999999975690116e-08;0.0;0.0;0.0;3.999999975690116e-08;0.0;0.0;0.0;3.999999975690116e-08
35,300000000,35.3,imu_link,-0.003053335575019132,-0.008296330500424269,-0.0013941021150806283,0.00020364287124328116,0.0002771329480624206,9.799927541039134,-4.61557079573492e-10,5.330484785037211e-08,-4.9891055590803424e-08,0.9999999999999973,0.0;0.0;0.0;0.0;0.0;0.0;0.0;0.0;0.0,7.621289842063561e-05;0.0;0.0;0.0;7.621289842063561e-05;0.0;0.0;0.0;7.621289842063561e-05,3.999999975690116e-08;0.0;0.0;0.0;3.999999975690116e-08;0.0;0.0;0.0;3.999999975690116e-08
35,320000000,35.32,imu_link,0.007665871279543201,-0.0055559863133775225,-0.0008553589024344568,-0.0005268669274702099,-8.198684076047612e-05,9.799659625961551,-4.615570795430912e-10,5.330484785047552e-08,-4.9891055590808334e-08,0.9999999999999973,0.0;0.0;0.0;0.0;0.0;0.0;0.0;0.0;0.0,7.621289842063561e-05;0.0;0.0;0.0;7.621289842063561e-05;0.0;0.0;0.0;7.621289842063561e-05,3.999999975690116e-08;0.0;0.0;0.0;3.999999975690116e-08;0.0;0.0;0.0;3.999999975690116e-08
35,340000000,35.34,imu_link,-0.004021565706863917,0.0009355481085257532,-0.007707076750232815,-0.00014088056482423566,0.0002936302565223373,9.7998929163748,-4.6155707937916644e-10,5.330484785058076e-08,-4.989105559081457e-08,0.9999999999999973,0.0;0.0;0.0;0.0;0.0;0.0;0.0;0.0;0.0,7.621289842063561e-05;0.0;0.0;0.0;7.621289842063561e-05;0.0;0.0;0.0;7.621289842063561e-05,3.999999975690116e-08;0.0;0.0;0.0;3.999999975690116e-08;0.0;0.0;0.0;3.999999975690116e-08
35,360000000,35.36,imu_link,-0.004427839163395661,0.004545371827416144,0.03276017188091654,-0.00023449822201778253,-0.0001155522404912428,9.800163680957114,-4.615570796970684e-10,5.330484785091319e-08,-4.989105559082017e-08,0.9999999999999973,0.0;0.0;0.0;0.0;0.0;0.0;0.0;0.0;0.0,7.621289842063561e-05;0.0;0.0;0.0;7.621289842063561e-05;0.0;0.0;0.0;7.621289842063561e-05,3.999999975690116e-08;0.0;0.0;0.0;3.999999975690116e-08;0.0;0.0;0.0;3.999999975690116e-08
35,380000000,35.38,imu_link,-0.005920572231919509,0.004054358646168795,-0.006086278888267444,0.00021784495141608927,-0.0001845352874147688,9.799662526791339,-4.6155707944662106e-10,5.330484785050221e-08,-4.989105559082693e-08,0.9999999999999973,0.0;0.0;0.0;0.0;0.0;0.0;0.0;0.0;0.0,7.621289842063561e-05;0.0;0.0;0.0;7.621289842063561e-05;0.0;0.0;0.0;7.621289842063561e-05,3.999999975690116e-08;0.0;0.0;0.0;3.999999975690116e-08;0.0;0.0;0.0;3.999999975690116e-08
35,400000000,35.4,imu_link,-0.011622571495698973,-0.00104957727436396,0.005060149361925804,-0.0002967884961945027,-9.176032185461225e-05,9.799808587153134,-4.6155707942789715e-10,5.330484785060222e-08,-4.989105559083467e-08,0.9999999999999973,0.0;0.0;0.0;0.0;0.0;0.0;0.0;0.0;0.0,7.621289842063561e-05;0.0;0.0;0.0;7.621289842063561e-05;0.0;0.0;0.0;7.621289842063561e-05,3.999999975690116e-08;0.0;0.0;0.0;3.999999975690116e-08;0.0;0.0;0.0;3.999999975690116e-08
35,420000000,35.42,imu_link,-0.0021718535851704794,-0.000846349943825329,-0.00627670212314173,-0.00013912380608525763,-6.697957672937301e-05,9.799745787013748,-4.6155707935678066e-10,5.330484785088842e-08,-4.9891055590840217e-08,0.9999999999999973,0.0;0.0;0.0;0.0;0.0;0.0;0.0;0.0;0.0,7.621289842063561e-05;0.0;0.0;0.0;7.621289842063561e-05;0.0;0.0;0.0;7.621289842063561e-05,3.999999975690116e-08;0.0;0.0;0.0;3.999999975690116e-08;0.0;0.0;0.0;3.999999975690116e-08
35,440000000,35.44,imu_link,0.004307335021165171,0.011919609902872443,0.002352336434368765,0.00021050348342127606,4.259185193286017e-05,9.799842003227813,-4.6155707959399884e-10,5.330484785038806e-08,-4.989105559084606e-08,0.9999999999999973,0.0;0.0;0.0;0.0;0.0;0.0;0.0;0.0;0.0,7.621289842063561e-05;0.0;0.0;0.0;7.621289842063561e-05;0.0;0.0;0.0;7.621289842063561e-05,3.999999975690116e-08;0.0;0.0;0.0;3.999999975690116e-08;0.0;0.0;0.0;3.999999975690116e-08
35,460000000,35.46,imu_link,-0.0012491498531537906,0.0039250867489654916,0.012611302616327414,0.00027285595832587294,-0.0002298933472936335,9.799986451689435,-4.6155707964673605e-10,5.330484785068663e-08,-4.989105559085219e-08,0.9999999999999973,0.0;0.0;0.0;0.0;0.0;0.0;0.0;0.0;0.0,7.621289842063561e-05;0.0;0.0;0.0;7.621289842063561e-05;0.0;0.0;0.0;7.621289842063561e-05,3.999999975690116e-08;0.0;0.0;0.0;3.999999975690116e-08;0.0;0.0;0.0;3.999999975690116e-08
35,480000000,35.48,imu_link,0.01277579800674715,0.007420804582000173,0.011441200407387104,-5.942904797725775e-06,-0.00019465310380156346,9.799959447144236,-4.6155707946561033e-10,5.330484785080213e-08,-4.989105559086058e-08,0.9999999999999973,0.0;0.0;0.0;0.0;0.0;0.0;0.0;0.0;0.0,7.621289842063561e-05;0.0;0.0;0.0;7.621289842063561e-05;0.0;0.0;0.0;7.621289842063561e-05,3.999999975690116e-08;0.0;0.0;0.0;3.999999975690116e-08;0.0;0.0;0.0;3.999999975690116e-08
35,500000000,35.5,imu_link,-0.003687564860293564,-0.008861524410144008,-0.014885782526196361,0.0002600284595835816,-1.9370405169473397e-05,9.800164486631612,-4.6155707947082576e-10,5.3304847850267026e-08,-4.989105559086804e-08,0.9999999999999973,0.0;0.0;0.0;0.0;0.0;0.0;0.0;0.0;0.0,7.621289842063561e-05;0.0;0.0;0.0;7.621289842063561e-05;0.0;0.0;0.0;7.621289842063561e-05,3.999999975690116e-08;0.0;0.0;0.0;3.999999975690116e-08;0.0;0.0;0.0;3.999999975690116e-08
35,520000000,35.52,imu_link,-0.0050940536859656665,0.007555680537401379,-0.0009771523126205178,0.00016883554000379455,-7.850407214612114e-05,9.799976329053916,-4.615570793841795e-10,5.330484785056388e-08,-4.989105559087347e-08,0.9999999999999973,0.0;0.0;0.0;0.0;0.0;0.0;0.0;0.0;0.0,7.621289842063561e-05;0.0;0.0;0.0;7.621289842063561e-05;0.0;0.0;0.0;7.621289842063561e-05,3.999999975690116e-08;0.0;0.0;0.0;3.999999975690116e-08;0.0;0.0;0.0;3.999999975690116e-08
35,540000000,35.54,imu_link,0.006635326272808948,-0.007457570623303284,0.013328679943459815,0.00014529714365131699,0.00016991208084538148,9.80002349269023,-4.615570796924079e-10,5.330484785079272e-08,-4.989105559087954e-08,0.9999999999999973,0.0;0.0;0.0;0.0;0.0;0.0;0.0;0.0;0.0,7.621289842063561e-05;0.0;0.0;0.0;7.621289842063561e-05;0.0;0.0;0.0;7.621289842063561e-05,3.999999975690116e-08;0.0;0.0;0.0;3.999999975690116e-08;0.0;0.0;0.0;3.999999975690116e-08
35,560000000,35.56,imu_link,0.00013351451042593478,0.013608488795675307,0.005500747784742819,0.0003243846846211522,0.00016139501731558023,9.800045373751095,-4.6155707951486113e-10,5.330484785032888e-08,-4.9891055590886e-08,0.9999999999999973,0.0;0.0;0.0;0.0;0.0;0.0;0.0;0.0;0.0,7.621289842063561e-05;0.0;0.0;0.0;7.621289842063561e-05;0.0;0.0;0.0;7.621289842063561e-05,3.999999975690116e-08;0.0;0.0;0.0;3.999999975690116e-08;0.0;0.0;0.0;3.999999975690116e-08
35,580000000,35.58,imu_link,0.007710432898506241,-0.0008796311025419406,0.0003497280227735243,-0.00016713831741617217,-0.00028632307065594567,9.799689336810703,-4.6155707958489515e-10,5.3304847850499424e-08,-4.989105559089261e-08,0.9999999999999973,0.0;0.0;0.0;0.0;0.0;0.0;0.0;0.0;0.0,7.621289842063561e-05;0.0;0.0;0.0;7.621289842063561e-05;0.0;0.0;0.0;7.621289842063561e-05,3.999999975690116e-08;0.0;0.0;0.0;3.999999975690116e-08;0.0;0.0;0.0;3.999999975690116e-08
35,600000000,35.6,imu_link,-0.0007098533997400783,-0.0065668500048043504,-0.015523394498664168,-2.765007886726925e-05,-0.00022935003045505104,9.79977577716307,-4.615570794127045e-10,5.330484785062132e-08,-4.989105559089791e-08,0.9999999999999973,0.0;0.0;0.0;0.0;0.0;0.0;0.0;0.0;0.0,7.621289842063561e-05;0.0;0.0;0.0;7.621289842063561e-05;0.0;0.0;0.0;7.621289842063561e-05,3.999999975690116e-08;0.0;0.0;0.0;3.999999975690116e-08;0.0;0.0;0.0;3.999999975690116e-08
35,620000000,35.62,imu_link,-0.010389956990084345,0.0020429200393130044,0.0017589468314993227,-5.139378811370333e-05,-5.1542703246272e-05,9.800019685372787,-4.615570793857476e-10,5.330484785026699e-08,-4.9891055590905015e-08,0.9999999999999973,0.0;0.0;0.0;0.0;0.0;0.0;0.0;0.0;0.0,7.621289842063561e-05;0.0;0.0;0.0;7.621289842063561e-05;0.0;0.0;0.0;7.621289842063561e-05,3.999999975690116e-08;0.0;0.0;0.0;3.999999975690116e-08;0.0;0.0;0.0;3.999999975690116e-08
35,640000000,35.64,imu_link,0.00039626767659188317,-0.006773912696252028,-0.0030011743572597874,6.912548820803245e-05,-0.0002814122783278286,9.799894966445361,-4.615570796061161e-10,5.330484785042367e-08,-4.989105559091014e-08,0.9999999999999973,0.0;0.0;0.0;0.0;0.0;0.0;0.0;0.0;0.0,7.621289842063561e-05;0.0;0.0;0.0;7.621289842063561e-05;0.0;0.0;0.0;7.621289842063561e-05,3.999999975690116e-08;0.0;0.0;0.0;3.999999975690116e-08;0.0;0.0;0.0;3.999999975690116e-08
35,660000000,35.66,imu_link,-0.002045401136614046,-0.027969381207616002,0.01028180775717753,5.888332730250865e-05,-0.00011121767700940722,9.800040451065554,-4.615570794244565e-10,5.3304847850548346e-08,-4.98910555909168e-08,0.9999999999999973,0.0;0.0;0.0;0.0;0.0;0.0;0.0;0.0;0.0,7.621289842063561e-05;0.0;0.0;0.0;7.621289842063561e-05;0.0;0.0;0.0;7.621289842063561e-05,3.999999975690116e-08;0.0;0.0;0.0;3.999999975690116e-08;0.0;0.0;0.0;3.999999975690116e-08
35,680000000,35.68,imu_link,-0.018466593332810602,0.0003164559269293977,-0.011520759092024898,-0.0001994321780768615,9.516608017266801e-05,9.799919173986577,-4.6155707934226085e-10,5.330484785084536e-08,-4.989105559092221e-08,0.9999999999999973,0.0;0.0;0.0;0.0;0.0;0.0;0.0;0.0;0.0,7.621289842063561e-05;0.0;0.0;0.0;7.621289842063561e-05;0.0;0.0;0.0;7.621289842063561e-05,3.999999975690116e-08;0.0;0.0;0.0;3.999999975690116e-08;0.0;0.0;0.0;3.999999975690116e-08
35,700000000,35.7,imu_link,-0.0017327120028811718,-0.007327861211954088,-0.006029020502945815,-9.453499819555525e-05,-0.000438329823142482,9.79989908966789,-4.615570794467309e-10,5.3304847850366837e-08,-4.989105559092936e-08,0.9999999999999973,0.0;0.0;0.0;0.0;0.0;0.0;0.0;0.0;0.0,7.621289842063561e-05;0.0;0.0;0.0;7.621289842063561e-05;0.0;0.0;0.0;7.621289842063561e-05,3.999999975690116e-08;0.0;0.0;0.0;3.999999975690116e-08;0.0;0.0;0.0;3.999999975690116e-08
35,720000000,35.72,imu_link,-0.011000715061817611,-0.004290883410953087,-0.007395796033855409,5.703107637962214e-05,-4.1872544863319185e-05,9.800160374583303,-4.6155707951103413e-10,5.3304847850412345e-08,-4.989105559093509e-08,0.9999999999999973,0.0;0.0;0.0;0.0;0.0;0.0;0.0;0.0;0.0,7.621289842063561e-05;0.0;0.0;0.0;7.621289842063561e-05;0.0;0.0;0.0;7.621289842063561e-05,3.999999975690116e-08;0.0;0.0;0.0;3.999999975690116e-08;0.0;0.0;0.0;3.999999975690116e-08
35,740000000,35.74,imu_link,-0.007245806742536802,-0.0009195732044150701,-0.008889343118658763,0.00017777944321452656,-0.0004580526111229513,9.800114508235461,-4.615570794412344e-10,5.330484785072184e-08,-4.9891055590942734e-08,0.9999999999999973,0.0;0.0;0.0;0.0;0.0;0.0;0.0;0.0;0.0,7.621289842063561e-05;0.0;0.0;0.0;7.621289842063561e-05;0.0;0.0;0.0;7.621289842063561e-05,3.999999975690116e-08;0.0;0.0;0.0;3.999999975690116e-08;0.0;0.0;0.0;3.999999975690116e-08
35,760000000,35.76,imu_link,-0.011739371581086193,0.0069142600787933505,-0.00829635749139212,0.00013015068206071422,-0.0001570887750431618,9.79973418039865,-4.6155707952050204e-10,5.3304847850883176e-08,-4.989105559094983e-08,0.9999999999999973,0.0;0.0;0.0;0.0;0.0;0.0;0.0;0.0;0.0,7.621289842063561e-05;0.0;0.0;0.0;7.621289842063561e-05;0.0;0.0;0.0;7.621289842063561e-05,3.999999975690116e-08;0.0;0.0;0.0;3.999999975690116e-08;0.0;0.0;0.0;3.999999975690116e-08
35,780000000,35.78,imu_link,-0.0073026839667578594,0.014448412405665316,-0.004454974211974864,-0.00045424126947984467,-0.00013849242367325188,9.79985869710453,-4.615570796232574e-10,5.3304847850519905e-08,-4.98910555909555e-08,0.9999999999999973,0.0;0.0;0.0;0.0;0.0;0.0;0.0;0.0;0.0,7.621289842063561e-05;0.0;0.0;0.0;7.621289842063561e-05;0.0;0.0;0.0;7.621289842063561e-05,3.999999975690116e-08;0.0;0.0;0.0;3.999999975690116e-08;0.0;0.0;0.0;3.999999975690116e-08
35,800000000,35.8,imu_link,-0.0026027792286557883,-0.003708000404704523,-0.0004016767689527061,6.085789072631468e-05,-0.00014286740673122262,9.800066632176524,-4.615570795954103e-10,5.330484785062771e-08,-4.9891055590962454e-08,0.9999999999999973,0.0;0.0;0.0;0.0;0.0;0.0;0.0;0.0;0.0,7.621289842063561e-05;0.0;0.0;0.0;7.621289842063561e-05;0.0;0.0;0.0;7.621289842063561e-05,3.999999975690116e-08;0.0;0.0;0.0;3.999999975690116e-08;0.0;0.0;0.0;3.999999975690116e-08
35,820000000,35.82,imu_link,-0.009080311910560968,-0.00861851552673688,0.012789532165149673,-0.00019872897722043097,-0.0005286340356994007,9.800174752907601,-4.615570795514789e-10,5.330484785027854e-08,-4.989105559097041e-08,0.9999999999999973,0.0;0.0;0.0;0.0;0.0;0.0;0.0;0.0;0.0,7.621289842063561e-05;0.0;0.0;0.0;7.621289842063561e-05;0.0;0.0;0.0;7.621289842063561e-05,3.999999975690116e-08;0.0;0.0;0.0;3.999999975690116e-08;0.0;0.0;0.0;3.999999975690116e-08
35,840000000,35.84,imu_link,0.0013775483997875858,-0.005292430128726288,-0.010714379830916778,-0.0001276338224522557,6.8496571567377876e-06,9.799653840720428,-4.615570793709268e-10,5.330484785039551e-08,-4.9891055590978634e-08,0.9999999999999973,0.0;0.0;0.0;0.0;0.0;0.0;0.0;0.0;0.0,7.621289842063561e-05;0.0;0.0;0.0;7.621289842063561e-05;0.0;0.0;0.0;7.621289842063561e-05,3.999999975690116e-08;0.0;0.0;0.0;3.999999975690116e-08;0.0;0.0;0.0;3.999999975690116e-08
35,860000000,35.86,imu_link,-0.010951768449001614,-0.010199444333897419,-0.01601472513203828,-0.0003500309215719492,-0.00018401815637333007,9.799337083610185,-4.615570795849608e-10,5.3304847850559874e-08,-4.98910555909853e-08,0.9999999999999973,0.0;0.0;0.0;0.0;0.0;0.0;0.0;0.0;0.0,7.621289842063561e-05;0.0;0.0;0.0;7.621289842063561e-05;0.0;0.0;0.0;7.621289842063561e-05,3.999999975690116e-08;0.0;0.0;0.0;3.999999975690116e-08;0.0;0.0;0.0;3.999999975690116e-08
35,880000000,35.88,imu_link,0.00027911518789022543,-0.010442935167877532,-0.0051918755455806365,-0.0003740941194000492,-0.0006296342622423338,9.80010848008824,-4.615570795070499e-10,5.330484785085837e-08,-4.989105559099415e-08,0.9999999999999973,0.0;0.0;0.0;0.0;0.0;0.0;0.0;0.0;0.0,7.621289842063561e-05;0.0;0.0;0.0;7.621289842063561e-05;0.0;0.0;0.0;7.621289842063561e-05,3.999999975690116e-08;0.0;0.0;0.0;3.999999975690116e-08;0.0;0.0;0.0;3.999999975690116e-08
35,900000000,35.9,imu_link,-0.00392851556494032,0.006651715866505639,0.001997144621761188,3.1893658848434984e-05,-0.0001197662744876383,9.800452145054608,-4.615570795149374e-10,5.330484785032175e-08,-4.9891055591000544e-08,0.9999999999999973,0.0;0.0;0.0;0.0;0.0;0.0;0.0;0.0;0.0,7.621289842063561e-05;0.0;0.0;0.0;7.621289842063561e-05;0.0;0.0;0.0;7.621289842063561e-05,3.999999975690116e-08;0.0;0.0;0.0;3.999999975690116e-08;0.0;0.0;0.0;3.999999975690116e-08
35,920000000,35.92,imu_link,-0.0033016622328722305,-0.008910847891482115,0.003231515888498304,-0.0002648108914960366,-0.0006200833527601481,9.80022441934241,-4.615570795741592e-10,5.33048478504887e-08,-4.989105559100764e-08,0.9999999999999973,0.0;0.0;0.0;0.0;0.0;0.0;0.0;0.0;0.0,7.621289842063561e-05;0.0;0.0;0.0;7.621289842063561e-05;0.0;0.0;0.0;7.621289842063561e-05,3.999999975690116e-08;0.0;0.0;0.0;3.999999975690116e-08;0.0;0.0;0.0;3.999999975690116e-08
35,940000000,35.94,imu_link,0.008693183217565986,-0.006310219393117777,-0.005260000027406856,0.00011253271503837648,-0.00013202792405969245,9.79994090687177,-4.6155707950260175e-10,5.330484785078823e-08,-4.9891055591015195e-08,0.9999999999999973,0.0;0.0;0.0;0.0;0.0;0.0;0.0;0.0;0.0,7.621289842063561e-05;0.0;0.0;0.0;7.621289842063561e-05;0.0;0.0;0.0;7.621289842063561e-05,3.999999975690116e-08;0.0;0.0;0.0;3.999999975690116e-08;0.0;0.0;0.0;3.999999975690116e-08
35,960000000,35.96,imu_link,0.0007406298166450613,-0.00393803258455814,-0.009590655163113368,-0.0003080315889072829,7.226829746202553e-05,9.799369653885089,-4.615570795121941e-10,5.3304847850253526e-08,-4.989105559102329e-08,0.9999999999999973,0.0;0.0;0.0;0.0;0.0;0.0;0.0;0.0;0.0,7.621289842063561e-05;0.0;0.0;0.0;7.621289842063561e-05;0.0;0.0;0.0;7.621289842063561e-05,3.999999975690116e-08;0.0;0.0;0.0;3.999999975690116e-08;0.0;0.0;0.0;3.999999975690116e-08
35,980000000,35.98,imu_link,-0.006835759110342702,0.016702907854091967,-0.017475130954161092,8.002417665404048e-05,0.00013064995816938432,9.79997426825605,-4.6155707958501447e-10,5.330484785041954e-08,-4.98910555910309e-08,0.9999999999999973,0.0;0.0;0.0;0.0;0.0;0.0;0.0;0.0;0.0,7.621289842063561e-05;0.0;0.0;0.0;7.621289842063561e-05;0.0;0.0;0.0;7.621289842063561e-05,3.999999975690116e-08;0.0;0.0;0.0;3.999999975690116e-08;0.0;0.0;0.0;3.999999975690116e-08
36,0,36.0,imu_link,0.011417142538931493,-0.01818173017075111,0.002745142023300015,0.0005476190204631321,-0.00023525705262141005,9.799779911920163,-4.615570796530951e-10,5.330484785070146e-08,-4.9891055591039177e-08,0.9999999999999973,0.0;0.0;0.0;0.0;0.0;0.0;0.0;0.0;0.0,7.621289842063561e-05;0.0;0.0;0.0;7.621289842063561e-05;0.0;0.0;0.0;7.621289842063561e-05,3.999999975690116e-08;0.0;0.0;0.0;3.999999975690116e-08;0.0;0.0;0.0;3.999999975690116e-08
36,20000000,36.02,imu_link,-0.013167739472130104,0.015635145387311877,-0.008514501397676405,1.9367147437915317e-05,-8.391226073343263e-05,9.799946639888365,-4.6155707936729206e-10,5.330484785076063e-08,-4.989105559104654e-08,0.9999999999999973,0.0;0.0;0.0;0.0;0.0;0.0;0.0;0.0;0.0,7.621289842063561e-05;0.0;0.0;0.0;7.621289842063561e-05;0.0;0.0;0.0;7.621289842063561e-05,3.999999975690116e-08;0.0;0.0;0.0;3.999999975690116e-08;0.0;0.0;0.0;3.999999975690116e-08
36,40000000,36.04,imu_link,-0.003754910415428854,0.007594233855633089,0.0064312146512757054,-0.00012994711425289425,0.00018709291731156517,9.800098795880002,-4.6155707942521435e-10,5.330484785046669e-08,-4.9891055591053384e-08,0.9999999999999973,0.0;0.0;0.0;0.0;0.0;0.0;0.0;0.0;0.0,7.621289842063561e-05;0.0;0.0;0.0;7.621289842063561e-05;0.0;0.0;0.0;7.621289842063561e-05,3.999999975690116e-08;0.0;0.0;0.0;3.999999975690116e-08;0.0;0.0;0.0;3.999999975690116e-08
36,60000000,36.06,imu_link,0.010933829614091665,0.0015110359360125706,0.003533877805210868,-8.057254698877982e-05,3.5637180468765675e-05,9.799914955388257,-4.6155707947989357e-10,5.3304847850641666e-08,-4.9891055591059856e-08,0.9999999999999973,0.0;0.0;0.0;0.0;0.0;0.0;0.0;0.0;0.0,7.621289842063561e-05;0.0;0.0;0.0;7.621289842063561e-05;0.0;0.0;0.0;7.621289842063561e-05,3.999999975690116e-08;0.0;0.0;0.0;3.999999975690116e-08;0.0;0.0;0.0;3.999999975690116e-08
36,80000000,36.08,imu_link,-0.01024720156386326,-0.003007651072623557,0.016093584507423608,0.00012281328431688573,0.00023700106718784576,9.799867703264162,-4.6155707945153735e-10,5.330484785075695e-08,-4.989105559106643e-08,0.9999999999999973,0.0;0.0;0.0;0.0;0.0;0.0;0.0;0.0;0.0,7.621289842063561e-05;0.0;0.0;0.0;7.621289842063561e-05;0.0;0.0;0.0;7.621289842063561e-05,3.999999975690116e-08;0.0;0.0;0.0;3.999999975690116e-08;0.0;0.0;0.0;3.999999975690116e-08
36,100000000,36.1,imu_link,0.0010925006648527039,-0.005837363997724495,0.0033920195881471642,-0.0003685349605825673,-7.44837008191989e-05,9.800037231302037,-4.6155707941635105e-10,5.3304847850873e-08,-4.989105559107385e-08,0.9999999999999973,0.0;0.0;0.0;0.0;0.0;0.0;0.0;0.0;0.0,7.621289842063561e-05;0.0;0.0;0.0;7.621289842063561e-05;0.0;0.0;0.0;7.621289842063561e-05,3.999999975690116e-08;0.0;0.0;0.0;3.999999975690116e-08;0.0;0.0;0.0;3.999999975690116e-08
36,120000000,36.12,imu_link,-9.600882250377531e-05,-0.007758129780087223,-0.0119460517158043,0.00034425944995657913,-0.0001391228871865655,9.800096918438422,-4.615570796134397e-10,5.330484785056875e-08,-4.9891055591082005e-08,0.9999999999999973,0.0;0.0;0.0;0.0;0.0;0.0;0.0;0.0;0.0,7.621289842063561e-05;0.0;0.0;0.0;7.621289842063561e-05;0.0;0.0;0.0;7.621289842063561e-05,3.999999975690116e-08;0.0;0.0;0.0;3.999999975690116e-08;0.0;0.0;0.0;3.999999975690116e-08
36,140000000,36.14,imu_link,-0.003361067758340712,0.0040980632735704075,-0.015437366462937826,-0.00042266950806723924,0.00014758303165035788,9.80009593695921,-4.6155707956577777e-10,5.3304847850679855e-08,-4.989105559109197e-08,0.9999999999999973,0.0;0.0;0.0;0.0;0.0;0.0;0.0;0.0;0.0,7.621289842063561e-05;0.0;0.0;0.0;7.621289842063561e-05;0.0;0.0;0.0;7.621289842063561e-05,3.999999975690116e-08;0.0;0.0;0.0;3.999999975690116e-08;0.0;0.0;0.0;3.999999975690116e-08
36,160000000,36.16,imu_link,0.0043154755637235895,-0.003972822741541136,-0.0068489128087584,-3.62378348228653e-05,-0.0002117958704072632,9.800059849967404,-4.615570793934629e-10,5.330484785034788e-08,-4.989105559110173e-08,0.9999999999999973,0.0;0.0;0.0;0.0;0.0;0.0;0.0;0.0;0.0,7.621289842063561e-05;0.0;0.0;0.0;7.621289842063561e-05;0.0;0.0;0.0;7.621289842063561e-05,3.999999975690116e-08;0.0;0.0;0.0;3.999999975690116e-08;0.0;0.0;0.0;3.999999975690116e-08
36,180000000,36.18,imu_link,-0.005565651335074736,-0.004409823775281546,-0.0009858665841503212,-0.00044144689489743064,0.00016871944518095534,9.799900158310948,-4.615570794424542e-10,5.3304847850514975e-08,-4.989105559110785e-08,0.9999999999999973,0.0;0.0;0.0;0.0;0.0;0.0;0.0;0.0;0.0,7.621289842063561e-05;0.0;0.0;0.0;7.621289842063561e-05;0.0;0.0;0.0;7.621289842063561e-05,3.999999975690116e-08;0.0;0.0;0.0;3.999999975690116e-08;0.0;0.0;0.0;3.999999975690116e-08
36,200000000,36.2,imu_link,-0.008971106971593146,-0.008409523248003105,-0.0016148468606686842,-9.807782789631379e-05,0.00010002033796148517,9.799910991610266,-4.6155707965351227e-10,5.330484785068174e-08,-4.989105559111797e-08,0.9999999999999973,0.0;0.0;0.0;0.0;0.0;0.0;0.0;0.0;0.0,7.621289842063561e-05;0.0;0.0;0.0;7.621289842063561e-05;0.0;0.0;0.0;7.621289842063561e-05,3.999999975690116e-08;0.0;0.0;0.0;3.999999975690116e-08;0.0;0.0;0.0;3.999999975690116e-08
36,220000000,36.22,imu_link,-0.0008657054638495778,0.005153836359978333,-0.0073338897347266785,9.64449467178628e-05,-0.00016152620197533077,9.80003313860548,-4.6155707947254867e-10,5.330484785068452e-08,-4.989105559112693e-08,0.9999999999999973,0.0;0.0;0.0;0.0;0.0;0.0;0.0;0.0;0.0,7.621289842063561e-05;0.0;0.0;0.0;7.621289842063561e-05;0.0;0.0;0.0;7.621289842063561e-05,3.999999975690116e-08;0.0;0.0;0.0;3.999999975690116e-08;0.0;0.0;0.0;3.999999975690116e-08
36,240000000,36.24,imu_link,0.0035279999539639868,0.0012573488360437535,-0.013660358295341297,-0.0002626018789304759,-0.00042582779590066025,9.800090170024692,-4.6155707953351705e-10,5.330484785051309e-08,-4.989105559113456e-08,0.9999999999999973,0.0;0.0;0.0;0.0;0.0;0.0;0.0;0.0;0.0,7.621289842063561e-05;0.0;0.0;0.0;7.621289842063561e-05;0.0;0.0;0.0;7.621289842063561e-05,3.999999975690116e-08;0.0;0.0;0.0;3.999999975690116e-08;0.0;0.0;0.0;3.999999975690116e-08
36,260000000,36.26,imu_link,-0.01057463504778359,-0.017477648934775592,-0.014004877231360131,-0.00012098683498115422,-0.00018752623904562542,9.79974029156841,-4.6155707959137885e-10,5.3304847850557995e-08,-4.989105559114356e-08,0.9999999999999973,0.0;0.0;0.0;0.0;0.0;0.0;0.0;0.0;0.0,7.621289842063561e-05;0.0;0.0;0.0;7.621289842063561e-05;0.0;0.0;0.0;7.621289842063561e-05,3.999999975690116e-08;0.0;0.0;0.0;3.999999975690116e-08;0.0;0.0;0.0;3.999999975690116e-08
36,280000000,36.28,imu_link,-0.010162890896100103,0.004143475686718131,0.0036649833205636196,-7.581842713422126e-05,-0.00012609401618977396,9.8001362910265,-4.6155707952632125e-10,5.3304847850852815e-08,-4.989105559115196e-08,0.9999999999999973,0.0;0.0;0.0;0.0;0.0;0.0;0.0;0.0;0.0,7.621289842063561e-05;0.0;0.0;0.0;7.621289842063561e-05;0.0;0.0;0.0;7.621289842063561e-05,3.999999975690116e-08;0.0;0.0;0.0;3.999999975690116e-08;0.0;0.0;0.0;3.999999975690116e-08
36,300000000,36.3,imu_link,0.004945019473236665,0.006025095559043604,0.004988383761138279,-0.00010816108557263564,-0.0005160409341547144,9.799947466127309,-4.615570795338206e-10,5.3304847850312514e-08,-4.9891055591159455e-08,0.9999999999999973,0.0;0.0;0.0;0.0;0.0;0.0;0.0;0.0;0.0,7.621289842063561e-05;0.0;0.0;0.0;7.621289842063561e-05;0.0;0.0;0.0;7.621289842063561e-05,3.999999975690116e-08;0.0;0.0;0.0;3.999999975690116e-08;0.0;0.0;0.0;3.999999975690116e-08
36,320000000,36.32,imu_link,0.01137407018881529,0.009863066661009544,-0.008107351684075817,-0.0005391262809639101,-0.00028248977024884726,9.800192473433217,-4.615570794905637e-10,5.330484785042526e-08,-4.989105559116809e-08,0.9999999999999973,0.0;0.0;0.0;0.0;0.0;0.0;0.0;0.0;0.0,7.621289842063561e-05;0.0;0.0;0.0;7.621289842063561e-05;0.0;0.0;0.0;7.621289842063561e-05,3.999999975690116e-08;0.0;0.0;0.0;3.999999975690116e-08;0.0;0.0;0.0;3.999999975690116e-08
36,340000000,36.34,imu_link,-0.010067444507098233,-0.003838636795788696,0.01641842368560688,-0.00045931190661157835,-0.00012056898176030696,9.800024136626119,-4.6155707955923177e-10,5.330484785059448e-08,-4.989105559117486e-08,0.9999999999999973,0.0;0.0;0.0;0.0;0.0;0.0;0.0;0.0;0.0,7.621289842063561e-05;0.0;0.0;0.0;7.621289842063561e-05;0.0;0.0;0.0;7.621289842063561e-05,3.999999975690116e-08;0.0;0.0;0.0;3.999999975690116e-08;0.0;0.0;0.0;3.999999975690116e-08
36,360000000,36.36,imu_link,0.008748682111337013,-0.002028243372926695,-0.00797936134938714,-0.0001951295822239046,0.00012769370973623204,9.799627660740603,-4.6155707948231855e-10,5.330484785089243e-08,-4.989105559118121e-08,0.9999999999999973,0.0;0.0;0.0;0.0;0.0;0.0;0.0;0.0;0.0,7.621289842063561e-05;0.0;0.0;0.0;7.621289842063561e-05;0.0;0.0;0.0;7.621289842063561e-05,3.999999975690116e-08;0.0;0.0;0.0;3.999999975690116e-08;0.0;0.0;0.0;3.999999975690116e-08
36,380000000,36.38,imu_link,0.011025926337420056,0.01677455895306627,0.002761819195408323,-0.00029141073327591447,-0.0005052663190938604,9.799666332747918,-4.6155707956837377e-10,5.330484785041487e-08,-4.989105559118747e-08,0.9999999999999973,0.0;0.0;0.0;0.0;0.0;0.0;0.0;0.0;0.0,7.621289842063561e-05;0.0;0.0;0.0;7.621289842063561e-05;0.0;0.0;0.0;7.621289842063561e-05,3.999999975690116e-08;0.0;0.0;0.0;3.999999975690116e-08;0.0;0.0;0.0;3.999999975690116e-08
36,400000000,36.4,imu_link,-0.006536627440436682,0.007995192224828293,0.004154488022800112,3.193521004274684e-05,6.39284134577334e-06,9.800389198405085,-4.6155707953019515e-10,5.330484785053419e-08,-4.989105559119355e-08,0.9999999999999973,0.0;0.0;0.0;0.0;0.0;0.0;0.0;0.0;0.0,7.621289842063561e-05;0.0;0.0;0.0;7.621289842063561e-05;0.0;0.0;0.0;7.621289842063561e-05,3.999999975690116e-08;0.0;0.0;0.0;3.999999975690116e-08;0.0;0.0;0.0;3.999999975690116e-08
36,420000000,36.42,imu_link,-0.004175428906848014,-0.01044840366162556,0.0064805299910302904,-0.0001473157242506042,-0.00012614591994634144,9.80005443834733,-4.6155707968944385e-10,5.330484785087589e-08,-4.9891055591201516e-08,0.9999999999999973,0.0;0.0;0.0;0.0;0.0;0.0;0.0;0.0;0.0,7.621289842063561e-05;0.0;0.0;0.0;7.621289842063561e-05;0.0;0.0;0.0;7.621289842063561e-05,3.999999975690116e-08;0.0;0.0;0.0;3.999999975690116e-08;0.0;0.0;0.0;3.999999975690116e-08
36,440000000,36.44,imu_link,-0.009425334515968439,-0.012741531294011815,-0.011984839699400646,-2.8170071110507087e-05,-9.036983551227712e-06,9.799822806544736,-4.6155707955582513e-10,5.330484785034537e-08,-4.989105559120806e-08,0.9999999999999973,0.0;0.0;0.0;0.0;0.0;0.0;0.0;0.0;0.0,7.621289842063561e-05;0.0;0.0;0.0;7.621289842063561e-05;0.0;0.0;0.0;7.621289842063561e-05,3.999999975690116e-08;0.0;0.0;0.0;3.999999975690116e-08;0.0;0.0;0.0;3.999999975690116e-08
36,460000000,36.46,imu_link,0.019987336378205347,0.006458692719618049,-0.003633634530371231,2.1299932321834766e-05,-0.0002584491047782333,9.799837723658975,-4.6155707945931973e-10,5.33048478506479e-08,-4.98910555912151e-08,0.9999999999999973,0.0;0.0;0.0;0.0;0.0;0.0;0.0;0.0;0.0,7.621289842063561e-05;0.0;0.0;0.0;7.621289842063561e-05;0.0;0.0;0.0;7.621289842063561e-05,3.999999975690116e-08;0.0;0.0;0.0;3.999999975690116e-08;0.0;0.0;0.0;3.999999975690116e-08
36,480000000,36.48,imu_link,-0.005501777286853542,0.0038728551653153804,0.007511080170624023,-0.00023681346534624106,4.48736377346025e-05,9.799732253134222,-4.61557079432019e-10,5.330484785076188e-08,-4.989105559122098e-08,0.9999999999999973,0.0;0.0;0.0;0.0;0.0;0.0;0.0;0.0;0.0,7.621289842063561e-05;0.0;0.0;0.0;7.621289842063561e-05;0.0;0.0;0.0;7.621289842063561e-05,3.999999975690116e-08;0.0;0.0;0.0;3.999999975690116e-08;0.0;0.0;0.0;3.999999975690116e-08
36,500000000,36.5,imu_link,0.006454025079014257,-0.012240006013056312,-0.002138272703811058,3.0235287614152652e-05,-0.0003100245722280275,9.80020485833347,-4.6155707954787634e-10,5.330484785028595e-08,-4.989105559122814e-08,0.9999999999999973,0.0;0.0;0.0;0.0;0.0;0.0;0.0;0.0;0.0,7.621289842063561e-05;0.0;0.0;0.0;7.621289842063561e-05;0.0;0.0;0.0;7.621289842063561e-05,3.999999975690116e-08;0.0;0.0;0.0;3.999999975690116e-08;0.0;0.0;0.0;3.999999975690116e-08
36,520000000,36.52,imu_link,0.0009374021715274826,0.00567012527285316,-0.004439425178849411,9.402590899912217e-05,-0.00026061477818129555,9.79994595974842,-4.6155707950834026e-10,5.330484785040258e-08,-4.98910555912351e-08,0.9999999999999973,0.0;0.0;0.0;0.0;0.0;0.0;0.0;0.0;0.0,7.621289842063561e-05;0.0;0.0;0.0;7.621289842063561e-05;0.0;0.0;0.0;7.621289842063561e-05,3.999999975690116e-08;0.0;0.0;0.0;3.999999975690116e-08;0.0;0.0;0.0;3.999999975690116e-08
36,540000000,36.54,imu_link,-4.881870264537628e-05,0.02433456700318789,0.012805681883951174,-0.00027022101963357955,4.257509205581408e-05,9.799786872807566,-4.6155707967198264e-10,5.330484785075807e-08,-4.9891055591241664e-08,0.9999999999999973,0.0;0.0;0.0;0.0;0.0;0.0;0.0;0.0;0.0,7.621289842063561e-05;0.0;0.0;0.0;7.621289842063561e-05;0.0;0.0;0.0;7.621289842063561e-05,3.999999975690116e-08;0.0;0.0;0.0;3.999999975690116e-08;0.0;0.0;0.0;3.999999975690116e-08
36,560000000,36.56,imu_link,0.0048486442515730125,-0.01024120275958703,0.007436163764813999,-7.025662826479273e-05,8.545182152892522e-05,9.799808372226417,-4.615570795011606e-10,5.330484785087799e-08,-4.989105559125081e-08,0.9999999999999973,0.0;0.0;0.0;0.0;0.0;0.0;0.0;0.0;0.0,7.621289842063561e-05;0.0;0.0;0.0;7.621289842063561e-05;0.0;0.0;0.0;7.621289842063561e-05,3.999999975690116e-08;0.0;0.0;0.0;3.999999975690116e-08;0.0;0.0;0.0;3.999999975690116e-08
36,580000000,36.58,imu_link,-0.00023626621546120075,0.008549305226251675,-0.011554715551249347,-0.00019828524823931138,0.00021198571814328262,9.799821298917164,-4.615570794374398e-10,5.330484785051841e-08,-4.989105559125907e-08,0.9999999999999973,0.0;0.0;0.0;0.0;0.0;0.0;0.0;0.0;0.0,7.621289842063561e-05;0.0;0.0;0.0;7.621289842063561e-05;0.0;0.0;0.0;7.621289842063561e-05,3.999999975690116e-08;0.0;0.0;0.0;3.999999975690116e-08;0.0;0.0;0.0;3.999999975690116e-08
36,600000000,36.6,imu_link,0.00414926981965291,-0.003539848246429732,-0.0012097820163063486,3.298944643827314e-05,-8.901128899083919e-05,9.799832192897936,-4.6155707964202614e-10,5.33048478506798e-08,-4.989105559126715e-08,0.9999999999999973,0.0;0.0;0.0;0.0;0.0;0.0;0.0;0.0;0.0,7.621289842063561e-05;0.0;0.0;0.0;7.621289842063561e-05;0.0;0.0;0.0;7.621289842063561e-05,3.999999975690116e-08;0.0;0.0;0.0;3.999999975690116e-08;0.0;0.0;0.0;3.999999975690116e-08
36,620000000,36.62,imu_link,0.005493715006211311,-0.006661270461344107,0.004068256162912909,-0.00029214925929354156,-8.622885182361078e-05,9.799915579262446,-4.615570794685395e-10,5.3304847850810305e-08,-4.98910555912719e-08,0.9999999999999973,0.0;0.0;0.0;0.0;0.0;0.0;0.0;0.0;0.0,7.621289842063561e-05;0.0;0.0;0.0;7.621289842063561e-05;0.0;0.0;0.0;7.621289842063561e-05,3.999999975690116e-08;0.0;0.0;0.0;3.999999975690116e-08;0.0;0.0;0.0;3.999999975690116e-08
36,640000000,36.64,imu_link,0.010206764486767305,0.019533044464996013,0.0033705464729677378,-8.754593205038296e-05,1.746777801223664e-05,9.799928454604087,-4.615570794418245e-10,5.330484785046017e-08,-4.989105559127832e-08,0.9999999999999973,0.0;0.0;0.0;0.0;0.0;0.0;0.0;0.0;0.0,7.621289842063561e-05;0.0;0.0;0.0;7.621289842063561e-05;0.0;0.0;0.0;7.621289842063561e-05,3.999999975690116e-08;0.0;0.0;0.0;3.999999975690116e-08;0.0;0.0;0.0;3.999999975690116e-08
36,660000000,36.66,imu_link,0.005783412720179433,-0.0037065894965679423,-0.005486394699597927,3.9750000834171345e-05,-9.922068454611528e-05,9.800099230763012,-4.615570793948808e-10,5.3304847850572904e-08,-4.9891055591284545e-08,0.9999999999999973,0.0;0.0;0.0;0.0;0.0;0.0;0.0;0.0;0.0,7.621289842063561e-05;0.0;0.0;0.0;7.621289842063561e-05;0.0;0.0;0.0;7.621289842063561e-05,3.999999975690116e-08;0.0;0.0;0.0;3.999999975690116e-08;0.0;0.0;0.0;3.999999975690116e-08
36,680000000,36.68,imu_link,0.003616050851211872,0.018282231070685443,-0.002270102450749125,-7.869810990731267e-05,-0.00018337827493325248,9.799744093774184,-4.615570794524379e-10,5.330484785073522e-08,-4.989105559129067e-08,0.9999999999999973,0.0;0.0;0.0;0.0;0.0;0.0;0.0;0.0;0.0,7.621289842063561e-05;0.0;0.0;0.0;7.621289842063561e-05;0.0;0.0;0.0;7.621289842063561e-05,3.999999975690116e-08;0.0;0.0;0.0;3.999999975690116e-08;0.0;0.0;0.0;3.999999975690116e-08
36,700000000,36.7,imu_link,-0.0023987375816488135,0.002129543647302387,0.008553518056997653,7.337546835503082e-06,-0.0003545692707889603,9.800186151389314,-4.615570794183261e-10,5.3304847850845225e-08,-4.9891055591296575e-08,0.9999999999999973,0.0;0.0;0.0;0.0;0.0;0.0;0.0;0.0;0.0,7.621289842063561e-05;0.0;0.0;0.0;7.621289842063561e-05;0.0;0.0;0.0;7.621289842063561e-05,3.999999975690116e-08;0.0;0.0;0.0;3.999999975690116e-08;0.0;0.0;0.0;3.999999975690116e-08
36,720000000,36.72,imu_link,0.004448565537245757,-0.015482112084650874,0.002388453083936413,2.881485524609741e-05,6.910597045381526e-05,9.800114891822533,-4.615570796221643e-10,5.330484785053555e-08,-4.9891055591301763e-08,0.9999999999999973,0.0;0.0;0.0;0.0;0.0;0.0;0.0;0.0;0.0,7.621289842063561e-05;0.0;0.0;0.0;7.621289842063561e-05;0.0;0.0;0.0;7.621289842063561e-05,3.999999975690116e-08;0.0;0.0;0.0;3.999999975690116e-08;0.0;0.0;0.0;3.999999975690116e-08
36,740000000,36.74,imu_link,0.0007010779859894228,-0.001344928344892139,-0.008633277676228766,-6.941308000022595e-05,4.1709824670969645e-05,9.799969759075605,-4.615570796043257e-10,5.3304847850645166e-08,-4.989105559130897e-08,0.9999999999999973,0.0;0.0;0.0;0.0;0.0;0.0;0.0;0.0;0.0,7.621289842063561e-05;0.0;0.0;0.0;7.621289842063561e-05;0.0;0.0;0.0;7.621289842063561e-05,3.999999975690116e-08;0.0;0.0;0.0;3.999999975690116e-08;0.0;0.0;0.0;3.999999975690116e-08
36,760000000,36.76,imu_link,0.006721884809447789,-0.005259573767366161,0.012976908000679223,-9.264835263514245e-05,1.7254464041332034e-05,9.800123066090904,-4.6155707958583845e-10,5.330484785029584e-08,-4.989105559131746e-08,0.9999999999999973,0.0;0.0;0.0;0.0;0.0;0.0;0.0;0.0;0.0,7.621289842063561e-05;0.0;0.0;0.0;7.621289842063561e-05;0.0;0.0;0.0;7.621289842063561e-05,3.999999975690116e-08;0.0;0.0;0.0;3.999999975690116e-08;0.0;0.0;0.0;3.999999975690116e-08
36,780000000,36.78,imu_link,-0.004937532311267961,0.006262736947863506,0.012800983165662642,1.3966567570465122e-05,-0.00037070147276917936,9.800042027624029,-4.6155707963396165e-10,5.330484785046727e-08,-4.989105559132594e-08,0.9999999999999973,0.0;0.0;0.0;0.0;0.0;0.0;0.0;0.0;0.0,7.621289842063561e-05;0.0;0.0;0.0;7.621289842063561e-05;0.0;0.0;0.0;7.621289842063561e-05,3.999999975690116e-08;0.0;0.0;0.0;3.999999975690116e-08;0.0;0.0;0.0;3.999999975690116e-08
36,800000000,36.8,imu_link,0.0021868795228584623,-0.0005711030582552221,-0.006083860259975117,-1.53600723428519e-05,-0.00011195005002612036,9.799831860400866,-4.615570794109207e-10,5.3304847850672874e-08,-4.9891055591335056e-08,0.9999999999999973,0.0;0.0;0.0;0.0;0.0;0.0;0.0;0.0;0.0,7.621289842063561e-05;0.0;0.0;0.0;7.621289842063561e-05;0.0;0.0;0.0;7.621289842063561e-05,3.999999975690116e-08;0.0;0.0;0.0;3.999999975690116e-08;0.0;0.0;0.0;3.999999975690116e-08
36,820000000,36.82,imu_link,0.004871431052627625,-0.012625569695435422,-0.01898036744637658,-0.00022269874031246017,0.00011405162438956205,9.799904568062672,-4.615570793773117e-10,5.3304847850784933e-08,-4.9891055591342606e-08,0.9999999999999973,0.0;0.0;0.0;0.0;0.0;0.0;0.0;0.0;0.0,7.621289842063561e-05;0.0;0.0;0.0;7.621289842063561e-05;0.0;0.0;0.0;7.621289842063561e-05,3.999999975690116e-08;0.0;0.0;0.0;3.999999975690116e-08;0.0;0.0;0.0;3.999999975690116e-08
36,840000000,36.84,imu_link,-0.011410112434961383,0.016737904649376127,0.011024059468006109,-0.0002750078927168906,-0.00038033776074278833,9.80001299506551,-4.6155707947759835e-10,5.330484785030686e-08,-4.9891055591350944e-08,0.9999999999999973,0.0;0.0;0.0;0.0;0.0;0.0;0.0;0.0;0.0,7.621289842063561e-05;0.0;0.0;0.0;7.621289842063561e-05;0.0;0.0;0.0;7.621289842063561e-05,3.999999975690116e-08;0.0;0.0;0.0;3.999999975690116e-08;0.0;0.0;0.0;3.999999975690116e-08
36,860000000,36.86,imu_link,-0.004345410110268522,0.0037444759751727777,0.005852051957287957,0.00019747162837343093,0.00012717821708167906,9.800085516997989,-4.615570793928971e-10,5.330484785060675e-08,-4.989105559135801e-08,0.9999999999999973,0.0;0.0;0.0;0.0;0.0;0.0;0.0;0.0;0.0,7.621289842063561e-05;0.0;0.0;0.0;7.621289842063561e-05;0.0;0.0;0.0;7.621289842063561e-05,3.999999975690116e-08;0.0;0.0;0.0;3.999999975690116e-08;0.0;0.0;0.0;3.999999975690116e-08
36,880000000,36.88,imu_link,0.007152645794630395,0.009399820524622291,-0.0023322077015614107,0.00010442862611395968,-0.0003641758277701624,9.79962270882768,-4.615570794318739e-10,5.330484785077277e-08,-4.989105559136647e-08,0.9999999999999973,0.0;0.0;0.0;0.0;0.0;0.0;0.0;0.0;0.0,7.621289842063561e-05;0.0;0.0;0.0;7.621289842063561e-05;0.0;0.0;0.0;7.621289842063561e-05,3.999999975690116e-08;0.0;0.0;0.0;3.999999975690116e-08;0.0;0.0;0.0;3.999999975690116e-08
36,900000000,36.9,imu_link,0.0028497924675519003,0.002859956776815034,0.0010824738541157614,-8.231877790118195e-05,-0.00018965757595675365,9.79995781348628,-4.6155707953064307e-10,5.330484785029229e-08,-4.9891055591374813e-08,0.9999999999999973,0.0;0.0;0.0;0.0;0.0;0.0;0.0;0.0;0.0,7.621289842063561e-05;0.0;0.0;0.0;7.621289842063561e-05;0.0;0.0;0.0;7.621289842063561e-05,3.999999975690116e-08;0.0;0.0;0.0;3.999999975690116e-08;0.0;0.0;0.0;3.999999975690116e-08
36,920000000,36.92,imu_link,-0.005747940217129863,0.0007345372506872623,0.008051480298237273,-0.00013340564237380233,-4.477363553508204e-05,9.800094954681766,-4.6155707949450665e-10,5.330484785039593e-08,-4.9891055591380425e-08,0.9999999999999973,0.0;0.0;0.0;0.0;0.0;0.0;0.0;0.0;0.0,7.621289842063561e-05;0.0;0.0;0.0;7.621289842063561e-05;0.0;0.0;0.0;7.621289842063561e-05,3.999999975690116e-08;0.0;0.0;0.0;3.999999975690116e-08;0.0;0.0;0.0;3.999999975690116e-08
36,940000000,36.94,imu_link,-0.0015166060177010685,-0.015192830086691386,-0.01166224539001023,4.8172615127027466e-06,-0.00022231091395382137,9.79950593307308,-4.615570796613998e-10,5.33048478507412e-08,-4.989105559138495e-08,0.9999999999999973,0.0;0.0;0.0;0.0;0.0;0.0;0.0;0.0;0.0,7.621289842063561e-05;0.0;0.0;0.0;7.621289842063561e-05;0.0;0.0;0.0;7.621289842063561e-05,3.999999975690116e-08;0.0;0.0;0.0;3.999999975690116e-08;0.0;0.0;0.0;3.999999975690116e-08
36,960000000,36.96,imu_link,0.007254725497137064,-0.013859185250960653,0.0005842151225864097,-0.00016336066332675535,-0.0004011499451449109,9.799961043856593,-4.6155707947939535e-10,5.330484785074923e-08,-4.98910555913914e-08,0.9999999999999973,0.0;0.0;0.0;0.0;0.0;0.0;0.0;0.0;0.0,7.621289842063561e-05;0.0;0.0;0.0;7.621289842063561e-05;0.0;0.0;0.0;7.621289842063561e-05,3.999999975690116e-08;0.0;0.0;0.0;3.999999975690116e-08;0.0;0.0;0.0;3.999999975690116e-08
36,980000000,36.98,imu_link,0.0015010425072358976,-0.003451673018327971,-0.004181636071956186,-6.710865677074919e-05,2.6902961001852878e-05,9.800044820741778,-4.61557079539418e-10,5.3304847850454035e-08,-4.9891055591399774e-08,0.9999999999999973,0.0;0.0;0.0;0.0;0.0;0.0;0.0;0.0;0.0,7.621289842063561e-05;0.0;0.0;0.0;7.621289842063561e-05;0.0;0.0;0.0;7.621289842063561e-05,3.999999975690116e-08;0.0;0.0;0.0;3.999999975690116e-08;0.0;0.0;0.0;3.999999975690116e-08
37,0,37.0,imu_link,0.0010154367816454914,-0.00573874327943817,-0.01626439566646234,-0.0006356380682248021,-0.00016768154811490588,9.80010179009962,-4.615570793736394e-10,5.330484785057703e-08,-4.989105559140619e-08,0.9999999999999973,0.0;0.0;0.0;0.0;0.0;0.0;0.0;0.0;0.0,7.621289842063561e-05;0.0;0.0;0.0;7.621289842063561e-05;0.0;0.0;0.0;7.621289842063561e-05,3.999999975690116e-08;0.0;0.0;0.0;3.999999975690116e-08;0.0;0.0;0.0;3.999999975690116e-08
37,20000000,37.02,imu_link,-0.012604256023732177,0.0036546197577147868,0.006353665807830375,2.0833857766077725e-05,6.309940533090336e-05,9.800085787565552,-4.6155707956809274e-10,5.330484785028403e-08,-4.989105559141198e-08,0.9999999999999973,0.0;0.0;0.0;0.0;0.0;0.0;0.0;0.0;0.0,7.621289842063561e-05;0.0;0.0;0.0;7.621289842063561e-05;0.0;0.0;0.0;7.621289842063561e-05,3.999999975690116e-08;0.0;0.0;0.0;3.999999975690116e-08;0.0;0.0;0.0;3.999999975690116e-08
37,40000000,37.04,imu_link,0.0012831500810714274,-0.006989968553268296,0.0035575525058128476,0.00040953370521047477,-0.00012181954067779277,9.799941489682661,-4.6155707961030154e-10,5.330484785045023e-08,-4.989105559141796e-08,0.9999999999999973,0.0;0.0;0.0;0.0;0.0;0.0;0.0;0.0;0.0,7.621289842063561e-05;0.0;0.0;0.0;7.621289842063561e-05;0.0;0.0;0.0;7.621289842063561e-05,3.999999975690116e-08;0.0;0.0;0.0;3.999999975690116e-08;0.0;0.0;0.0;3.999999975690116e-08
37,60000000,37.06,imu_link,0.0055932356807918025,-0.004868698444856482,-0.009048961148423379,-7.821899129339366e-05,-0.00012260684956042213,9.799931118446189,-4.6155707943274717e-10,5.3304847850584656e-08,-4.9891055591423035e-08,0.9999999999999973,0.0;0.0;0.0;0.0;0.0;0.0;0.0;0.0;0.0,7.621289842063561e-05;0.0;0.0;0.0;7.621289842063561e-05;0.0;0.0;0.0;7.621289842063561e-05,3.999999975690116e-08;0.0;0.0;0.0;3.999999975690116e-08;0.0;0.0;0.0;3.999999975690116e-08
37,80000000,37.08,imu_link,-0.002044655708575499,-0.002791743888098198,-0.010591777306509105,0.00017227730458056057,-0.0003140214193586823,9.799783879356697,-4.615570794949553e-10,5.3304847850872555e-08,-4.989105559142872e-08,0.9999999999999973,0.0;0.0;0.0;0.0;0.0;0.0;0.0;0.0;0.0,7.621289842063561e-05;0.0;0.0;0.0;7.621289842063561e-05;0.0;0.0;0.0;7.621289842063561e-05,3.999999975690116e-08;0.0;0.0;0.0;3.999999975690116e-08;0.0;0.0;0.0;3.999999975690116e-08
37,100000000,37.1,imu_link,-0.0013036749540370775,-0.004127197580154876,-0.00044901754788134187,-0.0002901600786404346,1.8779996366885472e-05,9.799877150809625,-4.6155707960123094e-10,5.330484785039231e-08,-4.9891055591434404e-08,0.9999999999999973,0.0;0.0;0.0;0.0;0.0;0.0;0.0;0.0;0.0,7.621289842063561e-05;0.0;0.0;0.0;7.621289842063561e-05;0.0;0.0;0.0;7.621289842063561e-05,3.999999975690116e-08;0.0;0.0;0.0;3.999999975690116e-08;0.0;0.0;0.0;3.999999975690116e-08
37,120000000,37.12,imu_link,-0.0017399230120339814,0.0005734376179204361,-0.004111763571466075,-0.00032350227344748496,0.00021354989742185726,9.799915947214307,-4.615570795143881e-10,5.330484785057055e-08,-4.9891055591439506e-08,0.9999999999999973,0.0;0.0;0.0;0.0;0.0;0.0;0.0;0.0;0.0,7.621289842063561e-05;0.0;0.0;0.0;7.621289842063561e-05;0.0;0.0;0.0;7.621289842063561e-05,3.999999975690116e-08;0.0;0.0;0.0;3.999999975690116e-08;0.0;0.0;0.0;3.999999975690116e-08
37,140000000,37.14,imu_link,-0.0013843574635512338,0.013861584911561541,0.0019193905561722105,-0.0002744248180995166,-0.0002074902057996545,9.799837123279877,-4.615570795787121e-10,5.330484785073286e-08,-4.9891055591445825e-08,0.9999999999999973,0.0;0.0;0.0;0.0;0.0;0.0;0.0;0.0;0.0,7.621289842063561e-05;0.0;0.0;0.0;7.621289842063561e-05;0.0;0.0;0.0;7.621289842063561e-05,3.999999975690116e-08;0.0;0.0;0.0;3.999999975690116e-08;0.0;0.0;0.0;3.999999975690116e-08
37,160000000,37.16,imu_link,-0.000334153753000792,0.0026100660577193864,0.005798283028337345,-2.4263219208896865e-05,0.00013815665141981824,9.800109547154443,-4.6155707940793827e-10,5.330484785085324e-08,-4.98910555914521e-08,0.9999999999999973,0.0;0.0;0.0;0.0;0.0;0.0;0.0;0.0;0.0,7.621289842063561e-05;0.0;0.0;0.0;7.621289842063561e-05;0.0;0.0;0.0;7.621289842063561e-05,3.999999975690116e-08;0.0;0.0;0.0;3.999999975690116e-08;0.0;0.0;0.0;3.999999975690116e-08
37,180000000,37.18,imu_link,-0.006793447401508067,0.0046410077742652395,-0.001941510161772111,0.00016457315652553152,8.857137360987659e-05,9.799800904296808,-4.615570796042681e-10,5.330484785055453e-08,-4.989105559145587e-08,0.9999999999999973,0.0;0.0;0.0;0.0;0.0;0.0;0.0;0.0;0.0,7.621289842063561e-05;0.0;0.0;0.0;7.621289842063561e-05;0.0;0.0;0.0;7.621289842063561e-05,3.999999975690116e-08;0.0;0.0;0.0;3.999999975690116e-08;0.0;0.0;0.0;3.999999975690116e-08
37,200000000,37.2,imu_link,0.005395106274812689,0.0035631499986161284,-0.006919593159816672,0.00018529602143469727,-0.00028303502879539093,9.79984814958461,-4.615570794295841e-10,5.3304847850670564e-08,-4.9891055591460066e-08,0.9999999999999973,0.0;0.0;0.0;0.0;0.0;0.0;0.0;0.0;0.0,7.621289842063561e-05;0.0;0.0;0.0;7.621289842063561e-05;0.0;0.0;0.0;7.621289842063561e-05,3.999999975690116e-08;0.0;0.0;0.0;3.999999975690116e-08;0.0;0.0;0.0;3.999999975690116e-08
37,220000000,37.22,imu_link,-0.005194515350090613,-0.0019329815268413154,-0.00027690687552600656,-0.00027781975284215917,-0.0005705930206569525,9.799943960330719,-4.6155707940373805e-10,5.330484785032598e-08,-4.989105559146506e-08,0.9999999999999973,0.0;0.0;0.0;0.0;0.0;0.0;0.0;0.0;0.0,7.621289842063561e-05;0.0;0.0;0.0;7.621289842063561e-05;0.0;0.0;0.0;7.621289842063561e-05,3.999999975690116e-08;0.0;0.0;0.0;3.999999975690116e-08;0.0;0.0;0.0;3.999999975690116e-08
37,240000000,37.24,imu_link,-0.0009929423682364506,-0.006671758831206138,-0.0011223217068867075,-0.00038986645450575687,-0.00028769543053475664,9.799926725849744,-4.6155707937938585e-10,5.330484785043861e-08,-4.989105559146953e-08,0.9999999999999973,0.0;0.0;0.0;0.0;0.0;0.0;0.0;0.0;0.0,7.621289842063561e-05;0.0;0.0;0.0;7.621289842063561e-05;0.0;0.0;0.0;7.621289842063561e-05,3.999999975690116e-08;0.0;0.0;0.0;3.999999975690116e-08;0.0;0.0;0.0;3.999999975690116e-08
37,260000000,37.26,imu_link,0.0010850006403434812,-0.0017279600800196666,0.0028618765449828143,0.00021314281880539787,-0.0002719509120520372,9.79996850204642,-4.615570796012654e-10,5.330484785061012e-08,-4.9891055591473096e-08,0.9999999999999973,0.0;0.0;0.0;0.0;0.0;0.0;0.0;0.0;0.0,7.621289842063561e-05;0.0;0.0;0.0;7.621289842063561e-05;0.0;0.0;0.0;7.621289842063561e-05,3.999999975690116e-08;0.0;0.0;0.0;3.999999975690116e-08;0.0;0.0;0.0;3.999999975690116e-08
37,280000000,37.28,imu_link,-0.003165405893778065,-0.012959778540932108,0.002096785963179564,-0.00030481187876486225,-0.00027655141926944305,9.799954987637674,-4.615570795707653e-10,5.330484785026566e-08,-4.989105559147663e-08,0.9999999999999973,0.0;0.0;0.0;0.0;0.0;0.0;0.0;0.0;0.0,7.621289842063561e-05;0.0;0.0;0.0;7.621289842063561e-05;0.0;0.0;0.0;7.621289842063561e-05,3.999999975690116e-08;0.0;0.0;0.0;3.999999975690116e-08;0.0;0.0;0.0;3.999999975690116e-08
37,300000000,37.3,imu_link,-0.00643935206878653,-0.004765873490010831,0.0034068601440547107,-8.912312702817126e-05,-4.5762619136255936e-05,9.799792998170277,-4.615570794070084e-10,5.330484785040035e-08,-4.989105559148242e-08,0.9999999999999973,0.0;0.0;0.0;0.0;0.0;0.0;0.0;0.0;0.0,7.621289842063561e-05;0.0;0.0;0.0;7.621289842063561e-05;0.0;0.0;0.0;7.621289842063561e-05,3.999999975690116e-08;0.0;0.0;0.0;3.999999975690116e-08;0.0;0.0;0.0;3.999999975690116e-08
37,320000000,37.32,imu_link,0.0009761714617444372,0.0027476535732644867,0.00761177684239667,0.00028606459153526965,-9.891099588409722e-05,9.800344454217733,-4.615570794173603e-10,5.3304847850637967e-08,-4.989105559148761e-08,0.9999999999999973,0.0;0.0;0.0;0.0;0.0;0.0;0.0;0.0;0.0,7.621289842063561e-05;0.0;0.0;0.0;7.621289842063561e-05;0.0;0.0;0.0;7.621289842063561e-05,3.999999975690116e-08;0.0;0.0;0.0;3.999999975690116e-08;0.0;0.0;0.0;3.999999975690116e-08
37,340000000,37.34,imu_link,-0.0009934174432081814,-0.006009415682194083,0.006075889082125905,-0.00025885364635370973,-0.0001696049517454535,9.799876326627444,-4.6155707937838403e-10,5.330484785074255e-08,-4.989105559149159e-08,0.9999999999999973,0.0;0.0;0.0;0.0;0.0;0.0;0.0;0.0;0.0,7.621289842063561e-05;0.0;0.0;0.0;7.621289842063561e-05;0.0;0.0;0.0;7.621289842063561e-05,3.999999975690116e-08;0.0;0.0;0.0;3.999999975690116e-08;0.0;0.0;0.0;3.999999975690116e-08
37,360000000,37.36,imu_link,0.009241588102750069,0.0008745340758247064,-0.00941339159421793,-0.00011824219691372317,3.602469939586924e-05,9.799810101820793,-4.615570794750277e-10,5.330484785026094e-08,-4.9891055591497316e-08,0.9999999999999973,0.0;0.0;0.0;0.0;0.0;0.0;0.0;0.0;0.0,7.621289842063561e-05;0.0;0.0;0.0;7.621289842063561e-05;0.0;0.0;0.0;7.621289842063561e-05,3.999999975690116e-08;0.0;0.0;0.0;3.999999975690116e-08;0.0;0.0;0.0;3.999999975690116e-08
37,380000000,37.38,imu_link,-0.017846897447518238,-0.020694947276867593,-0.007482592355390491,-0.0001741707663783807,7.654823214511829e-05,9.799975336127936,-4.61557079399677e-10,5.3304847850562025e-08,-4.989105559150216e-08,0.9999999999999973,0.0;0.0;0.0;0.0;0.0;0.0;0.0;0.0;0.0,7.621289842063561e-05;0.0;0.0;0.0;7.621289842063561e-05;0.0;0.0;0.0;7.621289842063561e-05,3.999999975690116e-08;0.0;0.0;0.0;3.999999975690116e-08;0.0;0.0;0.0;3.999999975690116e-08
37,400000000,37.4,imu_link,-0.0023187053542113646,-0.008768792005549976,0.008168649211714146,-0.00010812494446491574,-2.9682749927390794e-05,9.80025069776096,-4.615570794708162e-10,5.330484785072253e-08,-4.989105559150682e-08,0.9999999999999973,0.0;0.0;0.0;0.0;0.0;0.0;0.0;0.0;0.0,7.621289842063561e-05;0.0;0.0;0.0;7.621289842063561e-05;0.0;0.0;0.0;7.621289842063561e-05,3.999999975690116e-08;0.0;0.0;0.0;3.999999975690116e-08;0.0;0.0;0.0;3.999999975690116e-08
37,420000000,37.42,imu_link,-0.004799947495002828,-0.014498776418588271,-0.0063055435582325195,-3.9131805970498324e-05,-2.9343021956913765e-05,9.799945945574512,-4.6155707942604484e-10,5.330484785083002e-08,-4.9891055591508446e-08,0.9999999999999973,0.0;0.0;0.0;0.0;0.0;0.0;0.0;0.0;0.0,7.621289842063561e-05;0.0;0.0;0.0;7.621289842063561e-05;0.0;0.0;0.0;7.621289842063561e-05,3.999999975690116e-08;0.0;0.0;0.0;3.999999975690116e-08;0.0;0.0;0.0;3.999999975690116e-08
37,440000000,37.44,imu_link,-0.0037549247623207185,0.009409632226184282,-0.0022272450465023763,-0.00021652001237548182,-0.000370562415887722,9.800170684276935,-4.615570796019225e-10,5.330484785052612e-08,-4.989105559151025e-08,0.9999999999999973,0.0;0.0;0.0;0.0;0.0;0.0;0.0;0.0;0.0,7.621289842063561e-05;0.0;0.0;0.0;7.621289842063561e-05;0.0;0.0;0.0;7.621289842063561e-05,3.999999975690116e-08;0.0;0.0;0.0;3.999999975690116e-08;0.0;0.0;0.0;3.999999975690116e-08
37,460000000,37.46,imu_link,-0.00960496328726864,0.005125735357838966,-0.00922037256331179,-0.0002907636804928836,-0.00010759758125719497,9.799972785538634,-4.6155707955878065e-10,5.330484785064475e-08,-4.989105559151204e-08,0.9999999999999973,0.0;0.0;0.0;0.0;0.0;0.0;0.0;0.0;0.0,7.621289842063561e-05;0.0;0.0;0.0;7.621289842063561e-05;0.0;0.0;0.0;7.621289842063561e-05,3.999999975690116e-08;0.0;0.0;0.0;3.999999975690116e-08;0.0;0.0;0.0;3.999999975690116e-08
37,480000000,37.48,imu_link,-0.007451423577519311,-0.013989261880909726,0.007578217999476027,0.0001892678520224114,-0.0004121859946813665,9.79992274202469,-4.615570795167575e-10,5.330484785028711e-08,-4.989105559151374e-08,0.9999999999999973,0.0;0.0;0.0;0.0;0.0;0.0;0.0;0.0;0.0,7.621289842063561e-05;0.0;0.0;0.0;7.621289842063561e-05;0.0;0.0;0.0;7.621289842063561e-05,3.999999975690116e-08;0.0;0.0;0.0;3.999999975690116e-08;0.0;0.0;0.0;3.999999975690116e-08
37,500000000,37.5,imu_link,-0.008706449094067962,0.005031609746602489,0.0063252803787010245,-0.0005977500209333009,-1.9050307916974188e-05,9.800148669694364,-4.615570795631768e-10,5.330484785045133e-08,-4.9891055591514825e-08,0.9999999999999973,0.0;0.0;0.0;0.0;0.0;0.0;0.0;0.0;0.0,7.621289842063561e-05;0.0;0.0;0.0;7.621289842063561e-05;0.0;0.0;0.0;7.621289842063561e-05,3.999999975690116e-08;0.0;0.0;0.0;3.999999975690116e-08;0.0;0.0;0.0;3.999999975690116e-08
37,520000000,37.52,imu_link,-0.013431687592671144,-0.0007439039782161048,0.015672186630788745,-7.478268749126132e-05,-0.00038344732090548256,9.799812286734735,-4.615570795321001e-10,5.3304847850567524e-08,-4.9891055591516586e-08,0.9999999999999973,0.0;0.0;0.0;0.0;0.0;0.0;0.0;0.0;0.0,7.621289842063561e-05;0.0;0.0;0.0;7.621289842063561e-05;0.0;0.0;0.0;7.621289842063561e-05,3.999999975690116e-08;0.0;0.0;0.0;3.999999975690116e-08;0.0;0.0;0.0;3.999999975690116e-08
37,540000000,37.54,imu_link,-0.004665937414919186,0.0007203441370040725,-0.0044468573980725465,-3.8464617372969875e-05,3.8909491648722523e-05,9.800061422620896,-4.615570796908556e-10,5.330484785091326e-08,-4.989105559151914e-08,0.9999999999999973,0.0;0.0;0.0;0.0;0.0;0.0;0.0;0.0;0.0,7.621289842063561e-05;0.0;0.0;0.0;7.621289842063561e-05;0.0;0.0;0.0;7.621289842063561e-05,3.999999975690116e-08;0.0;0.0;0.0;3.999999975690116e-08;0.0;0.0;0.0;3.999999975690116e-08
37,560000000,37.56,imu_link,-0.00036268285956008985,0.008081781092269097,-0.016275461185569298,3.5361616177500505e-05,-0.0003032498037114936,9.799744640643638,-4.6155707951995413e-10,5.330484785038112e-08,-4.989105559152136e-08,0.9999999999999973,0.0;0.0;0.0;0.0;0.0;0.0;0.0;0.0;0.0,7.621289842063561e-05;0.0;0.0;0.0;7.621289842063561e-05;0.0;0.0;0.0;7.621289842063561e-05,3.999999975690116e-08;0.0;0.0;0.0;3.999999975690116e-08;0.0;0.0;0.0;3.999999975690116e-08
37,580000000,37.58,imu_link,0.0026716745273279922,0.0016573786605685223,-0.005681875716746404,-0.0002021288361237311,-0.0003015547119435117,9.79984397108955,-4.6155707956235143e-10,5.3304847850545845e-08,-4.989105559152278e-08,0.9999999999999973,0.0;0.0;0.0;0.0;0.0;0.0;0.0;0.0;0.0,7.621289842063561e-05;0.0;0.0;0.0;7.621289842063561e-05;0.0;0.0;0.0;7.621289842063561e-05,3.999999975690116e-08;0.0;0.0;0.0;3.999999975690116e-08;0.0;0.0;0.0;3.999999975690116e-08
37,600000000,37.6,imu_link,0.0007893412103525634,0.005886828389251567,0.013306901332462895,1.3219236810803927e-05,-0.00012586231478870714,9.800128919033478,-4.6155707947201457e-10,5.33048478507404e-08,-4.9891055591523885e-08,0.9999999999999973,0.0;0.0;0.0;0.0;0.0;0.0;0.0;0.0;0.0,7.621289842063561e-05;0.0;0.0;0.0;7.621289842063561e-05;0.0;0.0;0.0;7.621289842063561e-05,3.999999975690116e-08;0.0;0.0;0.0;3.999999975690116e-08;0.0;0.0;0.0;3.999999975690116e-08
37,620000000,37.62,imu_link,-0.005179446538759013,0.006063910779244881,0.00013351159055614777,-7.38671810528327e-05,0.00015743176748949517,9.800121822042145,-4.6155707954218896e-10,5.330484785025768e-08,-4.989105559152493e-08,0.9999999999999973,0.0;0.0;0.0;0.0;0.0;0.0;0.0;0.0;0.0,7.621289842063561e-05;0.0;0.0;0.0;7.621289842063561e-05;0.0;0.0;0.0;7.621289842063561e-05,3.999999975690116e-08;0.0;0.0;0.0;3.999999975690116e-08;0.0;0.0;0.0;3.999999975690116e-08
37,640000000,37.64,imu_link,0.0023059662599668363,-0.0016247700920327959,0.007217694342467572,-0.00012319170848313618,-0.0003322353098891263,9.800040926590162,-4.6155707960097823e-10,5.3304847850549855e-08,-4.989105559152729e-08,0.9999999999999973,0.0;0.0;0.0;0.0;0.0;0.0;0.0;0.0;0.0,7.621289842063561e-05;0.0;0.0;0.0;7.621289842063561e-05;0.0;0.0;0.0;7.621289842063561e-05,3.999999975690116e-08;0.0;0.0;0.0;3.999999975690116e-08;0.0;0.0;0.0;3.999999975690116e-08
37,660000000,37.66,imu_link,0.009639571913605321,-0.0045195994954483,-0.015861214809956208,0.00017082145722566107,0.00010752015850082275,9.799463709885988,-4.615570795556801e-10,5.330484785066847e-08,-4.989105559152872e-08,0.9999999999999973,0.0;0.0;0.0;0.0;0.0;0.0;0.0;0.0;0.0,7.621289842063561e-05;0.0;0.0;0.0;7.621289842063561e-05;0.0;0.0;0.0;7.621289842063561e-05,3.999999975690116e-08;0.0;0.0;0.0;3.999999975690116e-08;0.0;0.0;0.0;3.999999975690116e-08
37,680000000,37.68,imu_link,0.00034856295722030683,0.014808851068908066,0.016236579675000865,-0.00048805935704975196,-0.00011093316067615828,9.7999300703263,-4.6155707951022473e-10,5.330484785030994e-08,-4.989105559153067e-08,0.9999999999999973,0.0;0.0;0.0;0.0;0.0;0.0;0.0;0.0;0.0,7.621289842063561e-05;0.0;0.0;0.0;7.621289842063561e-05;0.0;0.0;0.0;7.621289842063561e-05,3.999999975690116e-08;0.0;0.0;0.0;3.999999975690116e-08;0.0;0.0;0.0;3.999999975690116e-08
37,700000000,37.7,imu_link,0.009403488291608805,-0.028536695581748043,-0.0007809955710139283,-3.597197129865946e-05,-0.0002011527051647183,9.799796556082777,-4.6155707957253873e-10,5.330484785048478e-08,-4.9891055591532825e-08,0.9999999999999973,0.0;0.0;0.0;0.0;0.0;0.0;0.0;0.0;0.0,7.621289842063561e-05;0.0;0.0;0.0;7.621289842063561e-05;0.0;0.0;0.0;7.621289842063561e-05,3.999999975690116e-08;0.0;0.0;0.0;3.999999975690116e-08;0.0;0.0;0.0;3.999999975690116e-08
37,720000000,37.72,imu_link,0.013119207122184067,-0.00808146037804669,0.0019059870868030555,-0.0002724549220810073,0.00021099523550022634,9.799733038188121,-4.615570795502582e-10,5.330484785059987e-08,-4.989105559153557e-08,0.9999999999999973,0.0;0.0;0.0;0.0;0.0;0.0;0.0;0.0;0.0,7.621289842063561e-05;0.0;0.0;0.0;7.621289842063561e-05;0.0;0.0;0.0;7.621289842063561e-05,3.999999975690116e-08;0.0;0.0;0.0;3.999999975690116e-08;0.0;0.0;0.0;3.999999975690116e-08
37,740000000,37.74,imu_link,-0.014198053676298424,0.004199296202898553,0.004567367706159401,4.050462896830911e-05,-0.000188386064519846,9.800099122510959,-4.615570796031415e-10,5.3304847850302224e-08,-4.989105559153948e-08,0.9999999999999973,0.0;0.0;0.0;0.0;0.0;0.0;0.0;0.0;0.0,7.621289842063561e-05;0.0;0.0;0.0;7.621289842063561e-05;0.0;0.0;0.0;7.621289842063561e-05,3.999999975690116e-08;0.0;0.0;0.0;3.999999975690116e-08;0.0;0.0;0.0;3.999999975690116e-08
37,760000000,37.76,imu_link,0.012793270497137743,0.0008097680788102077,0.004611222650181231,-9.028717356252434e-05,-0.00038197239385085195,9.799853197132652,-4.6155707957448266e-10,5.330484785040218e-08,-4.989105559154407e-08,0.9999999999999973,0.0;0.0;0.0;0.0;0.0;0.0;0.0;0.0;0.0,7.621289842063561e-05;0.0;0.0;0.0;7.621289842063561e-05;0.0;0.0;0.0;7.621289842063561e-05,3.999999975690116e-08;0.0;0.0;0.0;3.999999975690116e-08;0.0;0.0;0.0;3.999999975690116e-08
37,780000000,37.78,imu_link,-0.0025760338999052117,-0.00258993205247661,-0.0011754097671729813,-1.35528701034039e-05,-0.0003631922179541263,9.79993025305264,-4.615570794758612e-10,5.330484785069744e-08,-4.9891055591547377e-08,0.9999999999999973,0.0;0.0;0.0;0.0;0.0;0.0;0.0;0.0;0.0,7.621289842063561e-05;0.0;0.0;0.0;7.621289842063561e-05;0.0;0.0;0.0;7.621289842063561e-05,3.999999975690116e-08;0.0;0.0;0.0;3.999999975690116e-08;0.0;0.0;0.0;3.999999975690116e-08
37,800000000,37.8,imu_link,0.009568292291816992,0.015270213406973036,-0.031544610630402356,0.00011045044260456263,-8.761782561408757e-05,9.799829887712852,-4.615570795272218e-10,5.330484785086814e-08,-4.989105559154988e-08,0.9999999999999973,0.0;0.0;0.0;0.0;0.0;0.0;0.0;0.0;0.0,7.621289842063561e-05;0.0;0.0;0.0;7.621289842063561e-05;0.0;0.0;0.0;7.621289842063561e-05,3.999999975690116e-08;0.0;0.0;0.0;3.999999975690116e-08;0.0;0.0;0.0;3.999999975690116e-08
37,820000000,37.82,imu_link,-0.0028472782528111557,0.018154593281973302,0.0009148284791248223,-0.00025924369374822015,-0.00010206461172398549,9.799940087788613,-4.615570794780443e-10,5.330484785040428e-08,-4.989105559155395e-08,0.9999999999999973,0.0;0.0;0.0;0.0;0.0;0.0;0.0;0.0;0.0,7.621289842063561e-05;0.0;0.0;0.0;7.621289842063561e-05;0.0;0.0;0.0;7.621289842063561e-05,3.999999975690116e-08;0.0;0.0;0.0;3.999999975690116e-08;0.0;0.0;0.0;3.999999975690116e-08
37,840000000,37.84,imu_link,0.007937415715767771,-0.013360051612949978,-0.006800183573907567,-0.0002904524046917514,-0.0002171147404164519,9.799813639345286,-4.6155707954293394e-10,5.3304847850575643e-08,-4.989105559155868e-08,0.9999999999999973,0.0;0.0;0.0;0.0;0.0;0.0;0.0;0.0;0.0,7.621289842063561e-05;0.0;0.0;0.0;7.621289842063561e-05;0.0;0.0;0.0;7.621289842063561e-05,3.999999975690116e-08;0.0;0.0;0.0;3.999999975690116e-08;0.0;0.0;0.0;3.999999975690116e-08
37,860000000,37.86,imu_link,0.0005185055272692606,0.01060321817150213,-0.01591370372194312,2.9989985704576203e-05,-0.00014098773641480175,9.79987744141904,-4.615570795929025e-10,5.330484785074785e-08,-4.989105559156241e-08,0.9999999999999973,0.0;0.0;0.0;0.0;0.0;0.0;0.0;0.0;0.0,7.621289842063561e-05;0.0;0.0;0.0;7.621289842063561e-05;0.0;0.0;0.0;7.621289842063561e-05,3.999999975690116e-08;0.0;0.0;0.0;3.999999975690116e-08;0.0;0.0;0.0;3.999999975690116e-08
37,880000000,37.88,imu_link,-0.004673559807940213,0.0037659957278673153,0.0133740141132168,-0.00012804397776527634,-5.9562861477093054e-05,9.79987140506482,-4.6155707939756583e-10,5.330484785040342e-08,-4.989105559156622e-08,0.9999999999999973,0.0;0.0;0.0;0.0;0.0;0.0;0.0;0.0;0.0,7.621289842063561e-05;0.0;0.0;0.0;7.621289842063561e-05;0.0;0.0;0.0;7.621289842063561e-05,3.999999975690116e-08;0.0;0.0;0.0;3.999999975690116e-08;0.0;0.0;0.0;3.999999975690116e-08
37,900000000,37.9,imu_link,-0.0014080958634408766,9.910225247633392e-05,0.009365911331416961,0.00015060434300512133,-0.00021223685233733358,9.79963073482774,-4.6155707959367723e-10,5.330484785057563e-08,-4.9891055591568294e-08,0.9999999999999973,0.0;0.0;0.0;0.0;0.0;0.0;0.0;0.0;0.0,7.621289842063561e-05;0.0;0.0;0.0;7.621289842063561e-05;0.0;0.0;0.0;7.621289842063561e-05,3.999999975690116e-08;0.0;0.0;0.0;3.999999975690116e-08;0.0;0.0;0.0;3.999999975690116e-08
37,920000000,37.92,imu_link,0.009757635375033066,0.0011983447445399003,-0.005478186786705744,0.00011605267347086368,6.812510075131644e-05,9.800073680919255,-4.615570795528745e-10,5.3304847850686836e-08,-4.9891055591573754e-08,0.9999999999999973,0.0;0.0;0.0;0.0;0.0;0.0;0.0;0.0;0.0,7.621289842063561e-05;0.0;0.0;0.0;7.621289842063561e-05;0.0;0.0;0.0;7.621289842063561e-05,3.999999975690116e-08;0.0;0.0;0.0;3.999999975690116e-08;0.0;0.0;0.0;3.999999975690116e-08
37,940000000,37.94,imu_link,0.0013036126586659532,-0.008649871625181556,-0.0031673543394059997,-0.00011457554415618258,-0.00018793507616789775,9.799757875859532,-4.61557079604446e-10,5.330484785038681e-08,-4.989105559157638e-08,0.9999999999999973,0.0;0.0;0.0;0.0;0.0;0.0;0.0;0.0;0.0,7.621289842063561e-05;0.0;0.0;0.0;7.621289842063561e-05;0.0;0.0;0.0;7.621289842063561e-05,3.999999975690116e-08;0.0;0.0;0.0;3.999999975690116e-08;0.0;0.0;0.0;3.999999975690116e-08
37,960000000,37.96,imu_link,0.0087605176991534,-0.012849769597656494,-0.007918262269417987,-0.00013813968411442013,-0.0006430568433005801,9.799633473430275,-4.615570795646614e-10,5.33048478504894e-08,-4.989105559158034e-08,0.9999999999999973,0.0;0.0;0.0;0.0;0.0;0.0;0.0;0.0;0.0,7.621289842063561e-05;0.0;0.0;0.0;7.621289842063561e-05;0.0;0.0;0.0;7.621289842063561e-05,3.999999975690116e-08;0.0;0.0;0.0;3.999999975690116e-08;0.0;0.0;0.0;3.999999975690116e-08
37,980000000,37.98,imu_link,0.005629138248636621,0.001354457715457979,-0.005622107299819469,-3.6324025283695723e-06,0.00013136505122129276,9.799725489237272,-4.61557079602997e-10,5.3304847850652604e-08,-4.989105559158405e-08,0.9999999999999973,0.0;0.0;0.0;0.0;0.0;0.0;0.0;0.0;0.0,7.621289842063561e-05;0.0;0.0;0.0;7.621289842063561e-05;0.0;0.0;0.0;7.621289842063561e-05,3.999999975690116e-08;0.0;0.0;0.0;3.999999975690116e-08;0.0;0.0;0.0;3.999999975690116e-08
38,0,38.0,imu_link,0.005920271571883143,0.02017792868073819,0.006985258159433172,-0.00034914602698775344,4.552626169323023e-06,9.800135876215812,-4.615570795594605e-10,5.330484785030314e-08,-4.9891055591586506e-08,0.9999999999999973,0.0;0.0;0.0;0.0;0.0;0.0;0.0;0.0;0.0,7.621289842063561e-05;0.0;0.0;0.0;7.621289842063561e-05;0.0;0.0;0.0;7.621289842063561e-05,3.999999975690116e-08;0.0;0.0;0.0;3.999999975690116e-08;0.0;0.0;0.0;3.999999975690116e-08
38,20000000,38.02,imu_link,0.01884761066374867,-0.004922831307998182,0.007045398127080712,-0.00039443505447684854,0.00010878158886892458,9.800275725896585,-4.615570795142998e-10,5.330484785029901e-08,-4.989105559159116e-08,0.9999999999999973,0.0;0.0;0.0;0.0;0.0;0.0;0.0;0.0;0.0,7.621289842063561e-05;0.0;0.0;0.0;7.621289842063561e-05;0.0;0.0;0.0;7.621289842063561e-05,3.999999975690116e-08;0.0;0.0;0.0;3.999999975690116e-08;0.0;0.0;0.0;3.999999975690116e-08
38,40000000,38.04,imu_link,-0.0026973394490845412,0.000914641112404952,0.0022239636762877066,-0.00016504389929312114,-0.0001279293580451701,9.799800170712942,-4.6155707966776004e-10,5.3304847850645815e-08,-4.9891055591594896e-08,0.9999999999999973,0.0;0.0;0.0;0.0;0.0;0.0;0.0;0.0;0.0,7.621289842063561e-05;0.0;0.0;0.0;7.621289842063561e-05;0.0;0.0;0.0;7.621289842063561e-05,3.999999975690116e-08;0.0;0.0;0.0;3.999999975690116e-08;0.0;0.0;0.0;3.999999975690116e-08
38,60000000,38.06,imu_link,0.0007763572730822936,0.005071514859773429,-0.0025323780006756,-0.000317919362208098,-0.0005544253205227638,9.800201606693397,-4.6155707937583854e-10,5.3304847850248364e-08,-4.9891055591598774e-08,0.9999999999999973,0.0;0.0;0.0;0.0;0.0;0.0;0.0;0.0;0.0,7.621289842063561e-05;0.0;0.0;0.0;7.621289842063561e-05;0.0;0.0;0.0;7.621289842063561e-05,3.999999975690116e-08;0.0;0.0;0.0;3.999999975690116e-08;0.0;0.0;0.0;3.999999975690116e-08
38,80000000,38.08,imu_link,0.00955927406200884,-0.00749682559104459,-0.0177347809688441,-7.308397707360311e-05,-0.0002149429671881763,9.799901735041177,-4.615570795813582e-10,5.330484785040765e-08,-4.989105559160146e-08,0.9999999999999973,0.0;0.0;0.0;0.0;0.0;0.0;0.0;0.0;0.0,7.621289842063561e-05;0.0;0.0;0.0;7.621289842063561e-05;0.0;0.0;0.0;7.621289842063561e-05,3.999999975690116e-08;0.0;0.0;0.0;3.999999975690116e-08;0.0;0.0;0.0;3.999999975690116e-08
38,100000000,38.1,imu_link,0.0060379709838299205,0.0005428446023795919,0.003293688447920121,-0.00014396070056678462,-8.847222106020226e-05,9.800094011598322,-4.6155707948577793e-10,5.330484785070759e-08,-4.989105559160465e-08,0.9999999999999973,0.0;0.0;0.0;0.0;0.0;0.0;0.0;0.0;0.0,7.621289842063561e-05;0.0;0.0;0.0;7.621289842063561e-05;0.0;0.0;0.0;7.621289842063561e-05,3.999999975690116e-08;0.0;0.0;0.0;3.999999975690116e-08;0.0;0.0;0.0;3.999999975690116e-08
38,120000000,38.12,imu_link,0.012955657232262994,-0.009489245234257378,0.00334864799169478,-0.000136000042052793,0.00022174681238113175,9.799798492414967,-4.6155707969822996e-10,5.3304847850875175e-08,-4.9891055591607066e-08,0.9999999999999973,0.0;0.0;0.0;0.0;0.0;0.0;0.0;0.0;0.0,7.621289842063561e-05;0.0;0.0;0.0;7.621289842063561e-05;0.0;0.0;0.0;7.621289842063561e-05,3.999999975690116e-08;0.0;0.0;0.0;3.999999975690116e-08;0.0;0.0;0.0;3.999999975690116e-08
38,140000000,38.14,imu_link,-0.00041808540402644664,0.011076689881516262,-0.009221003612784353,-1.169314318624495e-05,3.9081541473285115e-05,9.800208607022626,-4.6155707953438704e-10,5.330484785034533e-08,-4.989105559161074e-08,0.9999999999999973,0.0;0.0;0.0;0.0;0.0;0.0;0.0;0.0;0.0,7.621289842063561e-05;0.0;0.0;0.0;7.621289842063561e-05;0.0;0.0;0.0;7.621289842063561e-05,3.999999975690116e-08;0.0;0.0;0.0;3.999999975690116e-08;0.0;0.0;0.0;3.999999975690116e-08
38,160000000,38.16,imu_link,0.010200384335989498,-0.009296816659153431,-0.005792158571509751,-0.00012004588352251339,9.285093677911024e-05,9.799957753118186,-4.615570795832694e-10,5.3304847850528143e-08,-4.989105559161173e-08,0.9999999999999973,0.0;0.0;0.0;0.0;0.0;0.0;0.0;0.0;0.0,7.621289842063561e-05;0.0;0.0;0.0;7.621289842063561e-05;0.0;0.0;0.0;7.621289842063561e-05,3.999999975690116e-08;0.0;0.0;0.0;3.999999975690116e-08;0.0;0.0;0.0;3.999999975690116e-08
38,180000000,38.18,imu_link,-0.004024915809994916,0.00968737538300396,0.009086546822234622,-1.3548225476465013e-05,0.00011311971175740888,9.799704138499735,-4.615570795054589e-10,5.3304847850826855e-08,-4.9891055591613935e-08,0.9999999999999973,0.0;0.0;0.0;0.0;0.0;0.0;0.0;0.0;0.0,7.621289842063561e-05;0.0;0.0;0.0;7.621289842063561e-05;0.0;0.0;0.0;7.621289842063561e-05,3.999999975690116e-08;0.0;0.0;0.0;3.999999975690116e-08;0.0;0.0;0.0;3.999999975690116e-08
38,200000000,38.2,imu_link,-0.00458526026597078,-0.006449674715961594,0.0038658505637075903,-0.0003617709511009648,-0.00010437228389325981,9.799934174785452,-4.6155707951229077e-10,5.330484785029197e-08,-4.98910555916171e-08,0.9999999999999973,0.0;0.0;0.0;0.0;0.0;0.0;0.0;0.0;0.0,7.621289842063561e-05;0.0;0.0;0.0;7.621289842063561e-05;0.0;0.0;0.0;7.621289842063561e-05,3.999999975690116e-08;0.0;0.0;0.0;3.999999975690116e-08;0.0;0.0;0.0;3.999999975690116e-08
38,220000000,38.22,imu_link,0.005894727145064857,-0.012335752473477858,-0.0032341258320200917,-0.0005698233932986089,-0.00020511611795436116,9.79990843453543,-4.615570795869679e-10,5.330484785045563e-08,-4.98910555916187e-08,0.9999999999999973,0.0;0.0;0.0;0.0;0.0;0.0;0.0;0.0;0.0,7.621289842063561e-05;0.0;0.0;0.0;7.621289842063561e-05;0.0;0.0;0.0;7.621289842063561e-05,3.999999975690116e-08;0.0;0.0;0.0;3.999999975690116e-08;0.0;0.0;0.0;3.999999975690116e-08
38,240000000,38.24,imu_link,0.0007800027793765531,-0.0015728750255616813,0.01688636242260711,-7.536406611731493e-05,-0.00023719619598380743,9.799684109826554,-4.615570796451835e-10,5.3304847850755406e-08,-4.9891055591619043e-08,0.9999999999999973,0.0;0.0;0.0;0.0;0.0;0.0;0.0;0.0;0.0,7.621289842063561e-05;0.0;0.0;0.0;7.621289842063561e-05;0.0;0.0;0.0;7.621289842063561e-05,3.999999975690116e-08;0.0;0.0;0.0;3.999999975690116e-08;0.0;0.0;0.0;3.999999975690116e-08
38,260000000,38.26,imu_link,-0.005394194962550199,-0.0016304720061508546,0.011043972489497253,-0.00024107448353215358,0.00010190005779428917,9.799927892820808,-4.6155707943524867e-10,5.330484785086796e-08,-4.9891055591620135e-08,0.9999999999999973,0.0;0.0;0.0;0.0;0.0;0.0;0.0;0.0;0.0,7.621289842063561e-05;0.0;0.0;0.0;7.621289842063561e-05;0.0;0.0;0.0;7.621289842063561e-05,3.999999975690116e-08;0.0;0.0;0.0;3.999999975690116e-08;0.0;0.0;0.0;3.999999975690116e-08
38,280000000,38.28,imu_link,-9.446216301022171e-05,-0.0034837202830422125,0.0010798383333635339,-0.000543048787372693,-6.214643401872268e-05,9.799773814989974,-4.6155707961586045e-10,5.330484785055588e-08,-4.989105559162077e-08,0.9999999999999973,0.0;0.0;0.0;0.0;0.0;0.0;0.0;0.0;0.0,7.621289842063561e-05;0.0;0.0;0.0;7.621289842063561e-05;0.0;0.0;0.0;7.621289842063561e-05,3.999999975690116e-08;0.0;0.0;0.0;3.999999975690116e-08;0.0;0.0;0.0;3.999999975690116e-08
38,300000000,38.3,imu_link,0.005038612386866112,-0.012823790154290571,-0.00199719034093818,-0.00024658345656919546,8.75774850853672e-05,9.799654445571894,-4.615570794334114e-10,5.330484785067995e-08,-4.9891055591622796e-08,0.9999999999999973,0.0;0.0;0.0;0.0;0.0;0.0;0.0;0.0;0.0,7.621289842063561e-05;0.0;0.0;0.0;7.621289842063561e-05;0.0;0.0;0.0;7.621289842063561e-05,3.999999975690116e-08;0.0;0.0;0.0;3.999999975690116e-08;0.0;0.0;0.0;3.999999975690116e-08
38,320000000,38.32,imu_link,0.0009651826494978347,0.0003214593649903857,-0.011497597477872329,-0.00047509582920861413,-8.493652938104464e-06,9.79956937311275,-4.615570793799574e-10,5.330484785079766e-08,-4.9891055591624384e-08,0.9999999999999973,0.0;0.0;0.0;0.0;0.0;0.0;0.0;0.0;0.0,7.621289842063561e-05;0.0;0.0;0.0;7.621289842063561e-05;0.0;0.0;0.0;7.621289842063561e-05,3.999999975690116e-08;0.0;0.0;0.0;3.999999975690116e-08;0.0;0.0;0.0;3.999999975690116e-08
38,340000000,38.34,imu_link,-0.003092711139839834,-0.007818114652199311,0.0017846984637701077,-0.0001993540119526219,0.00028749788567078086,9.79975425040071,-4.615570794288345e-10,5.330484785050326e-08,-4.98910555916259e-08,0.9999999999999973,0.0;0.0;0.0;0.0;0.0;0.0;0.0;0.0;0.0,7.621289842063561e-05;0.0;0.0;0.0;7.621289842063561e-05;0.0;0.0;0.0;7.621289842063561e-05,3.999999975690116e-08;0.0;0.0;0.0;3.999999975690116e-08;0.0;0.0;0.0;3.999999975690116e-08
38,360000000,38.36,imu_link,0.004314725787273896,0.004974990589991368,0.013144357048858708,0.00025523386134400995,-0.0001487982262825276,9.800224007644314,-4.615570794871975e-10,5.3304847850668076e-08,-4.98910555916272e-08,0.9999999999999973,0.0;0.0;0.0;0.0;0.0;0.0;0.0;0.0;0.0,7.621289842063561e-05;0.0;0.0;0.0;7.621289842063561e-05;0.0;0.0;0.0;7.621289842063561e-05,3.999999975690116e-08;0.0;0.0;0.0;3.999999975690116e-08;0.0;0.0;0.0;3.999999975690116e-08
38,380000000,38.38,imu_link,-0.0040538311410689845,0.003007558504910236,-0.01073428471590815,0.00012958191108257487,-0.0002472551973229726,9.800073465042995,-4.6155707943183577e-10,5.3304847850781836e-08,-4.989105559162781e-08,0.9999999999999973,0.0;0.0;0.0;0.0;0.0;0.0;0.0;0.0;0.0,7.621289842063561e-05;0.0;0.0;0.0;7.621289842063561e-05;0.0;0.0;0.0;7.621289842063561e-05,3.999999975690116e-08;0.0;0.0;0.0;3.999999975690116e-08;0.0;0.0;0.0;3.999999975690116e-08
38,400000000,38.4,imu_link,0.0037757110481306134,-0.010226139798410767,0.0020657937178052777,-0.0001145823506149698,-1.0757351604330983e-06,9.79997678316607,-4.615570795075886e-10,5.330484785048612e-08,-4.989105559162977e-08,0.9999999999999973,0.0;0.0;0.0;0.0;0.0;0.0;0.0;0.0;0.0,7.621289842063561e-05;0.0;0.0;0.0;7.621289842063561e-05;0.0;0.0;0.0;7.621289842063561e-05,3.999999975690116e-08;0.0;0.0;0.0;3.999999975690116e-08;0.0;0.0;0.0;3.999999975690116e-08
38,420000000,38.42,imu_link,-0.00807557527577591,0.008438052945838524,-0.0025448522045582933,-0.0001912311421845765,0.00023770598271308157,9.79994355370904,-4.61557079455371e-10,5.3304847850480676e-08,-4.989105559163151e-08,0.9999999999999973,0.0;0.0;0.0;0.0;0.0;0.0;0.0;0.0;0.0,7.621289842063561e-05;0.0;0.0;0.0;7.621289842063561e-05;0.0;0.0;0.0;7.621289842063561e-05,3.999999975690116e-08;0.0;0.0;0.0;3.999999975690116e-08;0.0;0.0;0.0;3.999999975690116e-08
38,440000000,38.44,imu_link,0.0019100286659333276,-0.008296954791911549,0.009491804206539101,2.7367787312466697e-05,0.00032136638879700166,9.799873691763855,-4.6155707948339937e-10,5.330484785084962e-08,-4.9891055591633635e-08,0.9999999999999973,0.0;0.0;0.0;0.0;0.0;0.0;0.0;0.0;0.0,7.621289842063561e-05;0.0;0.0;0.0;7.621289842063561e-05;0.0;0.0;0.0;7.621289842063561e-05,3.999999975690116e-08;0.0;0.0;0.0;3.999999975690116e-08;0.0;0.0;0.0;3.999999975690116e-08
38,460000000,38.46,imu_link,0.002571449493377872,-0.01735612190249885,0.008887808406145037,-0.00016201534891601568,-0.0001273564949593287,9.799893508983267,-4.61557079466709e-10,5.330484785030082e-08,-4.989105559163676e-08,0.9999999999999973,0.0;0.0;0.0;0.0;0.0;0.0;0.0;0.0;0.0,7.621289842063561e-05;0.0;0.0;0.0;7.621289842063561e-05;0.0;0.0;0.0;7.621289842063561e-05,3.999999975690116e-08;0.0;0.0;0.0;3.999999975690116e-08;0.0;0.0;0.0;3.999999975690116e-08
38,480000000,38.48,imu_link,-0.00951210218550135,0.007757905733669789,0.008393942094950913,-2.0012616508312904e-05,0.00016700485584290382,9.799922876607507,-4.6155707959636567e-10,5.330484785052776e-08,-4.9891055591637897e-08,0.9999999999999973,0.0;0.0;0.0;0.0;0.0;0.0;0.0;0.0;0.0,7.621289842063561e-05;0.0;0.0;0.0;7.621289842063561e-05;0.0;0.0;0.0;7.621289842063561e-05,3.999999975690116e-08;0.0;0.0;0.0;3.999999975690116e-08;0.0;0.0;0.0;3.999999975690116e-08
38,500000000,38.5,imu_link,0.002177883933343929,-0.003687762371736886,0.011839959322481407,-0.0005300296901012051,-0.0005006054985691145,9.800024443940803,-4.615570795385198e-10,5.330484785064317e-08,-4.9891055591639346e-08,0.9999999999999973,0.0;0.0;0.0;0.0;0.0;0.0;0.0;0.0;0.0,7.621289842063561e-05;0.0;0.0;0.0;7.621289842063561e-05;0.0;0.0;0.0;7.621289842063561e-05,3.999999975690116e-08;0.0;0.0;0.0;3.999999975690116e-08;0.0;0.0;0.0;3.999999975690116e-08
38,520000000,38.52,imu_link,-0.00502495290107843,-0.010727658244974618,-0.004243731797334096,-5.218918201749003e-05,-8.504064331495506e-05,9.799814683716118,-4.615570795773846e-10,5.3304847850355594e-08,-4.9891055591641655e-08,0.9999999999999973,0.0;0.0;0.0;0.0;0.0;0.0;0.0;0.0;0.0,7.621289842063561e-05;0.0;0.0;0.0;7.621289842063561e-05;0.0;0.0;0.0;7.621289842063561e-05,3.999999975690116e-08;0.0;0.0;0.0;3.999999975690116e-08;0.0;0.0;0.0;3.999999975690116e-08
38,540000000,38.54,imu_link,-0.0009295125233290896,0.0082846368420003,0.005733025856451455,-0.00022163755280743539,-0.0002700180427798834,9.799934663138139,-4.615570795399716e-10,5.3304847850462386e-08,-4.9891055591643985e-08,0.9999999999999973,0.0;0.0;0.0;0.0;0.0;0.0;0.0;0.0;0.0,7.621289842063561e-05;0.0;0.0;0.0;7.621289842063561e-05;0.0;0.0;0.0;7.621289842063561e-05,3.999999975690116e-08;0.0;0.0;0.0;3.999999975690116e-08;0.0;0.0;0.0;3.999999975690116e-08
38,560000000,38.56,imu_link,0.000828453142738788,0.0027434540952823465,0.0012104746643977812,-0.00022284455672634757,0.00010460601483701471,9.799974856448634,-4.615570796006219e-10,5.3304847850631534e-08,-4.989105559164595e-08,0.9999999999999973,0.0;0.0;0.0;0.0;0.0;0.0;0.0;0.0;0.0,7.621289842063561e-05;0.0;0.0;0.0;7.621289842063561e-05;0.0;0.0;0.0;7.621289842063561e-05,3.999999975690116e-08;0.0;0.0;0.0;3.999999975690116e-08;0.0;0.0;0.0;3.999999975690116e-08
38,580000000,38.58,imu_link,-0.0062505752142230815,-0.007705187190021354,-0.0035960771278324894,7.826844723304033e-05,-0.00013927348099269097,9.799753189455426,-4.6155707950692883e-10,5.330484785081772e-08,-4.989105559164699e-08,0.9999999999999973,0.0;0.0;0.0;0.0;0.0;0.0;0.0;0.0;0.0,7.621289842063561e-05;0.0;0.0;0.0;7.621289842063561e-05;0.0;0.0;0.0;7.621289842063561e-05,3.999999975690116e-08;0.0;0.0;0.0;3.999999975690116e-08;0.0;0.0;0.0;3.999999975690116e-08
38,600000000,38.6,imu_link,-0.003030244733528176,0.01661793623676778,0.0019171738390473356,0.0002440452568540404,-0.0001540664249369101,9.799892749241739,-4.6155707960540277e-10,5.330484785046717e-08,-4.9891055591648643e-08,0.9999999999999973,0.0;0.0;0.0;0.0;0.0;0.0;0.0;0.0;0.0,7.621289842063561e-05;0.0;0.0;0.0;7.621289842063561e-05;0.0;0.0;0.0;7.621289842063561e-05,3.999999975690116e-08;0.0;0.0;0.0;3.999999975690116e-08;0.0;0.0;0.0;3.999999975690116e-08
38,620000000,38.62,imu_link,0.000987177749919516,-0.005399139626239833,0.011571589943788244,-8.441735665216824e-06,0.00023217700524136558,9.799983774364797,-4.615570796693679e-10,5.330484785063585e-08,-4.9891055591649087e-08,0.9999999999999973,0.0;0.0;0.0;0.0;0.0;0.0;0.0;0.0;0.0,7.621289842063561e-05;0.0;0.0;0.0;7.621289842063561e-05;0.0;0.0;0.0;7.621289842063561e-05,3.999999975690116e-08;0.0;0.0;0.0;3.999999975690116e-08;0.0;0.0;0.0;3.999999975690116e-08
38,640000000,38.64,imu_link,-0.0006086158729842335,-0.0015712481871986222,-0.014889160828614644,-7.91786953531284e-05,-0.0005115689125936474,9.799745505057794,-4.6155707935509187e-10,5.330484785089008e-08,-4.989105559164922e-08,0.9999999999999973,0.0;0.0;0.0;0.0;0.0;0.0;0.0;0.0;0.0,7.621289842063561e-05;0.0;0.0;0.0;7.621289842063561e-05;0.0;0.0;0.0;7.621289842063561e-05,3.999999975690116e-08;0.0;0.0;0.0;3.999999975690116e-08;0.0;0.0;0.0;3.999999975690116e-08
38,660000000,38.66,imu_link,0.012278385006967157,-0.00678828255014644,-0.0017761031030702984,5.134304762717846e-05,4.070925304764181e-05,9.800110871645566,-4.615570795553152e-10,5.330484785047309e-08,-4.989105559165094e-08,0.9999999999999973,0.0;0.0;0.0;0.0;0.0;0.0;0.0;0.0;0.0,7.621289842063561e-05;0.0;0.0;0.0;7.621289842063561e-05;0.0;0.0;0.0;7.621289842063561e-05,3.999999975690116e-08;0.0;0.0;0.0;3.999999975690116e-08;0.0;0.0;0.0;3.999999975690116e-08
38,680000000,38.68,imu_link,0.015048200945684072,-0.00820972606912064,0.011632653738498573,-0.00015706431555101904,9.730069595122852e-05,9.799897375287934,-4.6155707952020193e-10,5.3304847850465417e-08,-4.9891055591652806e-08,0.9999999999999973,0.0;0.0;0.0;0.0;0.0;0.0;0.0;0.0;0.0,7.621289842063561e-05;0.0;0.0;0.0;7.621289842063561e-05;0.0;0.0;0.0;7.621289842063561e-05,3.999999975690116e-08;0.0;0.0;0.0;3.999999975690116e-08;0.0;0.0;0.0;3.999999975690116e-08
38,700000000,38.7,imu_link,0.0066863898522397285,0.005007088341534595,0.0031195004487053935,-0.00021131521549631746,-0.0002557551143604028,9.800224153615696,-4.6155707944603174e-10,5.330484785076579e-08,-4.989105559165531e-08,0.9999999999999973,0.0;0.0;0.0;0.0;0.0;0.0;0.0;0.0;0.0,7.621289842063561e-05;0.0;0.0;0.0;7.621289842063561e-05;0.0;0.0;0.0;7.621289842063561e-05,3.999999975690116e-08;0.0;0.0;0.0;3.999999975690116e-08;0.0;0.0;0.0;3.999999975690116e-08
38,720000000,38.72,imu_link,0.008565041667817037,-0.0019797762695322246,-0.011986155930379896,0.00026146740551865526,-0.00045793246177181066,9.799998774140368,-4.615570793871475e-10,5.330484785087309e-08,-4.989105559165823e-08,0.9999999999999973,0.0;0.0;0.0;0.0;0.0;0.0;0.0;0.0;0.0,7.621289842063561e-05;0.0;0.0;0.0;7.621289842063561e-05;0.0;0.0;0.0;7.621289842063561e-05,3.999999975690116e-08;0.0;0.0;0.0;3.999999975690116e-08;0.0;0.0;0.0;3.999999975690116e-08
38,740000000,38.74,imu_link,-0.013048571684780923,0.00361045657623797,0.0008553481466409814,0.00016911523586487625,-0.0003231998285067089,9.799935921541183,-4.6155707944386903e-10,5.330484785059865e-08,-4.989105559165662e-08,0.9999999999999973,0.0;0.0;0.0;0.0;0.0;0.0;0.0;0.0;0.0,7.621289842063561e-05;0.0;0.0;0.0;7.621289842063561e-05;0.0;0.0;0.0;7.621289842063561e-05,3.999999975690116e-08;0.0;0.0;0.0;3.999999975690116e-08;0.0;0.0;0.0;3.999999975690116e-08
38,760000000,38.76,imu_link,-0.001292005330960339,-0.01108067339090467,-0.012742739156993201,2.3861959788853965e-05,-8.38241650685032e-05,9.79978300893312,-4.6155707948769647e-10,5.330484785077019e-08,-4.989105559165581e-08,0.9999999999999973,0.0;0.0;0.0;0.0;0.0;0.0;0.0;0.0;0.0,7.621289842063561e-05;0.0;0.0;0.0;7.621289842063561e-05;0.0;0.0;0.0;7.621289842063561e-05,3.999999975690116e-08;0.0;0.0;0.0;3.999999975690116e-08;0.0;0.0;0.0;3.999999975690116e-08
38,780000000,38.78,imu_link,0.0006762033685591605,-0.010707707134858161,0.0005881368239075039,-0.0002696901026809142,-6.042751746620081e-05,9.799628237857727,-4.6155707957521197e-10,5.33048478502898e-08,-4.9891055591656253e-08,0.9999999999999973,0.0;0.0;0.0;0.0;0.0;0.0;0.0;0.0;0.0,7.621289842063561e-05;0.0;0.0;0.0;7.621289842063561e-05;0.0;0.0;0.0;7.621289842063561e-05,3.999999975690116e-08;0.0;0.0;0.0;3.999999975690116e-08;0.0;0.0;0.0;3.999999975690116e-08
38,800000000,38.8,imu_link,0.014426566514941667,-0.012849475698518702,0.00855749209819658,-0.00019427008038589393,-0.00013858802266074563,9.799980346244764,-4.6155707939377693e-10,5.330484785029487e-08,-4.989105559165561e-08,0.9999999999999973,0.0;0.0;0.0;0.0;0.0;0.0;0.0;0.0;0.0,7.621289842063561e-05;0.0;0.0;0.0;7.621289842063561e-05;0.0;0.0;0.0;7.621289842063561e-05,3.999999975690116e-08;0.0;0.0;0.0;3.999999975690116e-08;0.0;0.0;0.0;3.999999975690116e-08
38,820000000,38.82,imu_link,0.001318325082578884,0.005320405643307157,-0.00799990611529967,7.651224229753673e-05,0.0001234093593525642,9.799747213145842,-4.615570795524223e-10,5.3304847850638986e-08,-4.98910555916561e-08,0.9999999999999973,0.0;0.0;0.0;0.0;0.0;0.0;0.0;0.0;0.0,7.621289842063561e-05;0.0;0.0;0.0;7.621289842063561e-05;0.0;0.0;0.0;7.621289842063561e-05,3.999999975690116e-08;0.0;0.0;0.0;3.999999975690116e-08;0.0;0.0;0.0;3.999999975690116e-08
38,840000000,38.84,imu_link,0.0059641980489461306,0.00047213934568259187,0.015387884294877344,-0.00021643308572843556,-5.1953434110441966e-06,9.800124172291099,-4.6155707958709116e-10,5.3304847850343305e-08,-4.989105559165671e-08,0.9999999999999973,0.0;0.0;0.0;0.0;0.0;0.0;0.0;0.0;0.0,7.621289842063561e-05;0.0;0.0;0.0;7.621289842063561e-05;0.0;0.0;0.0;7.621289842063561e-05,3.999999975690116e-08;0.0;0.0;0.0;3.999999975690116e-08;0.0;0.0;0.0;3.999999975690116e-08
38,860000000,38.86,imu_link,0.003592635033199188,-0.008023523186558383,0.0031024581186823294,-0.00012474531947246375,-0.00025752012434090727,9.79947127287473,-4.6155707938495433e-10,5.330484785046516e-08,-4.989105559165604e-08,0.9999999999999973,0.0;0.0;0.0;0.0;0.0;0.0;0.0;0.0;0.0,7.621289842063561e-05;0.0;0.0;0.0;7.621289842063561e-05;0.0;0.0;0.0;7.621289842063561e-05,3.999999975690116e-08;0.0;0.0;0.0;3.999999975690116e-08;0.0;0.0;0.0;3.999999975690116e-08
38,880000000,38.88,imu_link,0.0003873475537564167,0.001997941580083028,-0.006283881719431655,9.084450115462606e-05,-0.0002693581072300578,9.799760747504092,-4.615570795740199e-10,5.330484785062877e-08,-4.9891055591657167e-08,0.9999999999999973,0.0;0.0;0.0;0.0;0.0;0.0;0.0;0.0;0.0,7.621289842063561e-05;0.0;0.0;0.0;7.621289842063561e-05;0.0;0.0;0.0;7.621289842063561e-05,3.999999975690116e-08;0.0;0.0;0.0;3.999999975690116e-08;0.0;0.0;0.0;3.999999975690116e-08
