time_sec,time_nsec,timestamp,frame_id,angular_vel_x,angular_vel_y,angular_vel_z,linear_acc_x,linear_acc_y,linear_acc_z,orient_x,orient_y,orient_z,orient_w,orientation_covariance,angular_velocity_covariance,linear_acceleration_covariance
109,392000000,109.392,imu_link,-0.03617294322219654,-0.05107735176406195,-0.04436239570059301,-0.000710283926432624,0.00012676476322997257,9.800549234370154,-4.6155707941833396e-10,5.3304847850491926e-08,-4.9891055659988896e-08,0.9999999999999973,0.0;0.0;0.0;0.0;0.0;0.0;0.0;0.0;0.0,0.0015242580557242036;0.0;0.0;0.0;0.0015242580557242036;0.0;0.0;0.0;0.0015242580557242036,8.000000093488779e-07;0.0;0.0;0.0;8.000000093488779e-07;0.0;0.0;0.0;8.000000093488779e-07
109,396000000,109.396,imu_link,0.062357428787737174,0.006546002370453547,0.0033310553187733075,0.00034153319719117494,0.0018238563132518815,9.799726587738672,-4.6155707951167095e-10,5.3304847850296215e-08,-4.9891055659990484e-08,0.9999999999999973,0.0;0.0;0.0;0.0;0.0;0.0;0.0;0.0;0.0,0.0015242580557242036;0.0;0.0;0.0;0.0015242580557242036;0.0;0.0;0.0;0.0015242580557242036,8.000000093488779e-07;0.0;0.0;0.0;8.000000093488779e-07;0.0;0.0;0.0;8.000000093488779e-07
109,399000000,109.399,imu_link,0.07499796814603336,-0.027163272739441437,-0.028884638268434834,-0.0004836096938246852,-0.0002851491024832985,9.799400166315138,-4.6155707961025775e-10,5.3304847850463365e-08,-4.9891055659991854e-08,0.9999999999999973,0.0;0.0;0.0;0.0;0.0;0.0;0.0;0.0;0.0,0.0015242580557242036;0.0;0.0;0.0;0.0015242580557242036;0.0;0.0;0.0;0.0015242580557242036,8.000000093488779e-07;0.0;0.0;0.0;8.000000093488779e-07;0.0;0.0;0.0;8.000000093488779e-07
109,400000000,109.4,imu_link,-0.02924248433958556,0.01708365030328593,-0.016530648296199272,-0.0012066338242111654,0.0005539319387615269,9.799426708361652,-4.615570795679976e-10,5.330484785028612e-08,-4.989105565999221e-08,0.9999999999999973,0.0;0.0;0.0;0.0;0.0;0.0;0.0;0.0;0.0,0.0015242580557242036;0.0;0.0;0.0;0.0015242580557242036;0.0;0.0;0.0;0.0015242580557242036,8.000000093488779e-07;0.0;0.0;0.0;8.000000093488779e-07;0.0;0.0;0.0;8.000000093488779e-07
109,401000000,109.401,imu_link,-0.02266373637354784,0.038821144938467396,0.07940637934306899,0.00044036893919512874,-0.0015319935227338802,9.799695368588761,-4.6155707949217886e-10,5.3304847850755056e-08,-4.9891055659992754e-08,0.9999999999999973,0.0;0.0;0.0;0.0;0.0;0.0;0.0;0.0;0.0,0.0015242580557242036;0.0;0.0;0.0;0.0015242580557242036;0.0;0.0;0.0;0.0015242580557242036,8.000000093488779e-07;0.0;0.0;0.0;8.000000093488779e-07;0.0;0.0;0.0;8.000000093488779e-07
109,402000000,109.402,imu_link,-0.0649869775723422,0.03846656469621914,0.03049655922415446,-0.0008712778957251785,0.001578418571193163,9.800192479864018,-4.61557079456401e-10,5.330484785057781e-08,-4.9891055659993164e-08,0.9999999999999973,0.0;0.0;0.0;0.0;0.0;0.0;0.0;0.0;0.0,0.0015242580557242036;0.0;0.0;0.0;0.0015242580557242036;0.0;0.0;0.0;0.0015242580557242036,8.000000093488779e-07;0.0;0.0;0.0;8.000000093488779e-07;0.0;0.0;0.0;8.000000093488779e-07
109,403000000,109.403,imu_link,0.07040276829545378,0.02583732080299155,-0.10190952760429775,-5.2207496447284076e-05,-0.0005071944526368403,9.799949246128472,-4.615570794151377e-10,5.330484785039818e-08,-4.9891055659993806e-08,0.9999999999999973,0.0;0.0;0.0;0.0;0.0;0.0;0.0;0.0;0.0,0.0015242580557242036;0.0;0.0;0.0;0.0015242580557242036;0.0;0.0;0.0;0.0015242580557242036,8.000000093488779e-07;0.0;0.0;0.0;8.000000093488779e-07;0.0;0.0;0.0;8.000000093488779e-07
109,404000000,109.404,imu_link,0.03438018152293522,0.0026798587104066647,0.047753718878611934,-0.0006435922594797733,0.0007535317897208626,9.801119698469066,-4.615570793384328e-10,5.3304847850871675e-08,-4.9891055659994183e-08,0.9999999999999973,0.0;0.0;0.0;0.0;0.0;0.0;0.0;0.0;0.0,0.0015242580557242036;0.0;0.0;0.0;0.0015242580557242036;0.0;0.0;0.0;0.0015242580557242036,8.000000093488779e-07;0.0;0.0;0.0;8.000000093488779e-07;0.0;0.0;0.0;8.000000093488779e-07
109,405000000,109.405,imu_link,0.006875516378960581,-0.03441661305438393,-0.05288383705902231,0.00038629789815080597,-0.0008804392514022055,9.799803002289181,-4.6155707954263796e-10,5.330484785074148e-08,-4.989105565999475e-08,0.9999999999999973,0.0;0.0;0.0;0.0;0.0;0.0;0.0;0.0;0.0,0.0015242580557242036;0.0;0.0;0.0;0.0015242580557242036;0.0;0.0;0.0;0.0015242580557242036,8.000000093488779e-07;0.0;0.0;0.0;8.000000093488779e-07;0.0;0.0;0.0;8.000000093488779e-07
109,406000000,109.406,imu_link,0.051732064546929954,0.04341063988738226,-0.06446729391285606,0.0013992517484354905,-0.0007495983010672269,9.798641564909655,-4.615570795045325e-10,5.3304847850564453e-08,-4.989105565999519e-08,0.9999999999999973,0.0;0.0;0.0;0.0;0.0;0.0;0.0;0.0;0.0,0.0015242580557242036;0.0;0.0;0.0;0.0015242580557242036;0.0;0.0;0.0;0.0015242580557242036,8.000000093488779e-07;0.0;0.0;0.0;8.000000093488779e-07;0.0;0.0;0.0;8.000000093488779e-07
109,407000000,109.407,imu_link,-0.04855123881449776,0.0007380984584397201,-0.024470701453148478,0.0004416961185450717,0.0012316211432302398,9.798925689900859,-4.6155707946797276e-10,5.330484785073502e-08,-4.9891055659995236e-08,0.9999999999999973,0.0;0.0;0.0;0.0;0.0;0.0;0.0;0.0;0.0,0.0015242580557242036;0.0;0.0;0.0;0.0015242580557242036;0.0;0.0;0.0;0.0015242580557242036,8.000000093488779e-07;0.0;0.0;0.0;8.000000093488779e-07;0.0;0.0;0.0;8.000000093488779e-07
109,408000000,109.408,imu_link,0.048410181944506595,-0.06995323464437153,-0.011517630056009523,0.0007912699307665836,-0.0015060773426705848,9.800617411348279,-4.6155707943214715e-10,5.330484785055669e-08,-4.98910556599959e-08,0.9999999999999973,0.0;0.0;0.0;0.0;0.0;0.0;0.0;0.0;0.0,0.0015242580557242036;0.0;0.0;0.0;0.0015242580557242036;0.0;0.0;0.0;0.0015242580557242036,8.000000093488779e-07;0.0;0.0;0.0;8.000000093488779e-07;0.0;0.0;0.0;8.000000093488779e-07
109,409000000,109.409,imu_link,-0.027365416349881867,0.044469355675643585,0.008607760774006545,0.0025924438799116655,-0.00011136569594883888,9.800132822388859,-4.6155707939231737e-10,5.3304847850377716e-08,-4.9891055659996274e-08,0.9999999999999973,0.0;0.0;0.0;0.0;0.0;0.0;0.0;0.0;0.0,0.0015242580557242036;0.0;0.0;0.0;0.0015242580557242036;0.0;0.0;0.0;0.0015242580557242036,8.000000093488779e-07;0.0;0.0;0.0;8.000000093488779e-07;0.0;0.0;0.0;8.000000093488779e-07
109,410000000,109.41,imu_link,-0.011117824301826638,0.019736396174433967,0.08236736769231083,0.0013471686763554694,-0.0008669065049049213,9.80065583452108,-4.6155707970049706e-10,5.330484785089176e-08,-4.989105565999679e-08,0.9999999999999973,0.0;0.0;0.0;0.0;0.0;0.0;0.0;0.0;0.0,0.0015242580557242036;0.0;0.0;0.0;0.0015242580557242036;0.0;0.0;0.0;0.0015242580557242036,8.000000093488779e-07;0.0;0.0;0.0;8.000000093488779e-07;0.0;0.0;0.0;8.000000093488779e-07
109,411000000,109.411,imu_link,0.04545718639904682,-0.026588754736713672,0.00916975105210842,0.0006031073863370667,-0.0010619877729839313,9.801938198669664,-4.615570796586717e-10,5.3304847850715384e-08,-4.9891055659996863e-08,0.9999999999999973,0.0;0.0;0.0;0.0;0.0;0.0;0.0;0.0;0.0,0.0015242580557242036;0.0;0.0;0.0;0.0015242580557242036;0.0;0.0;0.0;0.0015242580557242036,8.000000093488779e-07;0.0;0.0;0.0;8.000000093488779e-07;0.0;0.0;0.0;8.000000093488779e-07
109,412000000,109.412,imu_link,-0.06256247473945409,0.03403092284238065,-0.004296041934825839,0.0005640608478936753,-0.00034671110891824414,9.799679994636602,-4.6155707961630196e-10,5.3304847850539876e-08,-4.989105565999732e-08,0.9999999999999973,0.0;0.0;0.0;0.0;0.0;0.0;0.0;0.0;0.0,0.0015242580557242036;0.0;0.0;0.0;0.0015242580557242036;0.0;0.0;0.0;0.0015242580557242036,8.000000093488779e-07;0.0;0.0;0.0;8.000000093488779e-07;0.0;0.0;0.0;8.000000093488779e-07
109,413000000,109.413,imu_link,0.02425572551604178,-0.01262427260230705,0.007267474838884034,0.0016014407346231058,-0.0007404222876522547,9.800072555425542,-4.615570795724339e-10,5.330484785036371e-08,-4.989105565999758e-08,0.9999999999999973,0.0;0.0;0.0;0.0;0.0;0.0;0.0;0.0;0.0,0.0015242580557242036;0.0;0.0;0.0;0.0015242580557242036;0.0;0.0;0.0;0.0015242580557242036,8.000000093488779e-07;0.0;0.0;0.0;8.000000093488779e-07;0.0;0.0;0.0;8.000000093488779e-07
109,414000000,109.414,imu_link,-0.010639212480713372,-0.03753715335188814,-0.045137100299905815,0.00042479366754231604,-0.000682284601577064,9.801084968210976,-4.615570795011851e-10,5.3304847850836556e-08,-4.9891055659998266e-08,0.9999999999999973,0.0;0.0;0.0;0.0;0.0;0.0;0.0;0.0;0.0,0.0015242580557242036;0.0;0.0;0.0;0.0015242580557242036;0.0;0.0;0.0;0.0015242580557242036,8.000000093488779e-07;0.0;0.0;0.0;8.000000093488779e-07;0.0;0.0;0.0;8.000000093488779e-07
109,415000000,109.415,imu_link,0.0151996109934088,-0.02902724859050432,-0.0572521766955304,0.0008868052567307857,-0.0009964163047536515,9.799177474770122,-4.615570794597854e-10,5.330484785065931e-08,-4.989105565999898e-08,0.9999999999999973,0.0;0.0;0.0;0.0;0.0;0.0;0.0;0.0;0.0,0.0015242580557242036;0.0;0.0;0.0;0.0015242580557242036;0.0;0.0;0.0;0.0015242580557242036,8.000000093488779e-07;0.0;0.0;0.0;8.000000093488779e-07;0.0;0.0;0.0;8.000000093488779e-07
109,416000000,109.416,imu_link,-0.018099002275497003,-0.007756144757840783,0.03458649543180009,0.0017417390879682884,-0.0007252063864180005,9.800336627971324,-4.615570794127259e-10,5.330484785048119e-08,-4.9891055659999596e-08,0.9999999999999973,0.0;0.0;0.0;0.0;0.0;0.0;0.0;0.0;0.0,0.0015242580557242036;0.0;0.0;0.0;0.0015242580557242036;0.0;0.0;0.0;0.0015242580557242036,8.000000093488779e-07;0.0;0.0;0.0;8.000000093488779e-07;0.0;0.0;0.0;8.000000093488779e-07
109,417000000,109.417,imu_link,-0.0278311915075768,0.030549220489916686,0.014171913787226268,0.00027442025293282995,-0.0012069160805205609,9.800422746753366,-4.615570793746758e-10,5.330484785030352e-08,-4.989105566000007e-08,0.9999999999999973,0.0;0.0;0.0;0.0;0.0;0.0;0.0;0.0;0.0,0.0015242580557242036;0.0;0.0;0.0;0.0015242580557242036;0.0;0.0;0.0;0.0015242580557242036,8.000000093488779e-07;0.0;0.0;0.0;8.000000093488779e-07;0.0;0.0;0.0;8.000000093488779e-07
109,418000000,109.418,imu_link,0.008435054380597369,0.008155758405928139,0.02121449079202304,0.0014323074122104006,-0.0004902428045093836,9.800412212302561,-4.6155707968665905e-10,5.3304847850819086e-08,-4.989105566000047e-08,0.9999999999999973,0.0;0.0;0.0;0.0;0.0;0.0;0.0;0.0;0.0,0.0015242580557242036;0.0;0.0;0.0;0.0015242580557242036;0.0;0.0;0.0;0.0015242580557242036,8.000000093488779e-07;0.0;0.0;0.0;8.000000093488779e-07;0.0;0.0;0.0;8.000000093488779e-07
109,419000000,109.419,imu_link,0.024885325159686937,0.08190420466171298,0.024079967510942733,-8.777775874431266e-05,0.0007756402753493771,9.800373167393568,-4.615570796446419e-10,5.330484785064228e-08,-4.98910556600006e-08,0.9999999999999973,0.0;0.0;0.0;0.0;0.0;0.0;0.0;0.0;0.0,0.0015242580557242036;0.0;0.0;0.0;0.0015242580557242036;0.0;0.0;0.0;0.0015242580557242036,8.000000093488779e-07;0.0;0.0;0.0;8.000000093488779e-07;0.0;0.0;0.0;8.000000093488779e-07
109,420000000,109.42,imu_link,0.06846661083486183,-0.05390529703019852,-0.01710463336815492,-0.001739317482141006,0.0004768964962786959,9.800524920511188,-4.615570796009025e-10,5.33048478504633e-08,-4.9891055660001165e-08,0.9999999999999973,0.0;0.0;0.0;0.0;0.0;0.0;0.0;0.0;0.0,0.0015242580557242036;0.0;0.0;0.0;0.0015242580557242036;0.0;0.0;0.0;0.0015242580557242036,8.000000093488779e-07;0.0;0.0;0.0;8.000000093488779e-07;0.0;0.0;0.0;8.000000093488779e-07
109,421000000,109.421,imu_link,-0.04135259899824187,-0.0646474133839936,-0.04716271069243688,0.0009847206362377898,-0.0003145698989237045,9.799668793511444,-4.615570795589665e-10,5.3304847850284754e-08,-4.98910556600018e-08,0.9999999999999973,0.0;0.0;0.0;0.0;0.0;0.0;0.0;0.0;0.0,0.0015242580557242036;0.0;0.0;0.0;0.0015242580557242036;0.0;0.0;0.0;0.0015242580557242036,8.000000093488779e-07;0.0;0.0;0.0;8.000000093488779e-07;0.0;0.0;0.0;8.000000093488779e-07
109,422000000,109.422,imu_link,-0.009296080024501979,-0.04617537331162092,0.0598766289227963,-0.0003945729086350716,-1.9307172037544282e-05,9.800954886437339,-4.6155707952360996e-10,5.3304847850571766e-08,-4.9891055660002204e-08,0.9999999999999973,0.0;0.0;0.0;0.0;0.0;0.0;0.0;0.0;0.0,0.0015242580557242036;0.0;0.0;0.0;0.0015242580557242036;0.0;0.0;0.0;0.0015242580557242036,8.000000093488779e-07;0.0;0.0;0.0;8.000000093488779e-07;0.0;0.0;0.0;8.000000093488779e-07
109,423000000,109.423,imu_link,0.01317011107657784,-0.053516461480911756,-0.00602896862117147,0.00015197810490435063,-0.0008462147105574797,9.799654525877312,-4.615570794774913e-10,5.330484785039604e-08,-4.9891055660002495e-08,0.9999999999999973,0.0;0.0;0.0;0.0;0.0;0.0;0.0;0.0;0.0,0.0015242580557242036;0.0;0.0;0.0;0.0015242580557242036;0.0;0.0;0.0;0.0015242580557242036,8.000000093488779e-07;0.0;0.0;0.0;8.000000093488779e-07;0.0;0.0;0.0;8.000000093488779e-07
109,424000000,109.424,imu_link,0.03285888863164567,0.037285535992177474,0.0018464188489548288,0.00016014942122593944,0.0004218191210584154,9.800510393597207,-4.615570793996619e-10,5.3304847850866493e-08,-4.98910556600029e-08,0.9999999999999973,0.0;0.0;0.0;0.0;0.0;0.0;0.0;0.0;0.0,0.0015242580557242036;0.0;0.0;0.0;0.0015242580557242036;0.0;0.0;0.0;0.0015242580557242036,8.000000093488779e-07;0.0;0.0;0.0;8.000000093488779e-07;0.0;0.0;0.0;8.000000093488779e-07
109,425000000,109.425,imu_link,-0.0014985975227825275,-0.0003955771920490557,0.0028208828499834537,0.00011248647063685142,0.00015073409193753752,9.800576909290552,-4.615570796072964e-10,5.330484785073696e-08,-4.989105566000342e-08,0.9999999999999973,0.0;0.0;0.0;0.0;0.0;0.0;0.0;0.0;0.0,0.0015242580557242036;0.0;0.0;0.0;0.0015242580557242036;0.0;0.0;0.0;0.0015242580557242036,8.000000093488779e-07;0.0;0.0;0.0;8.000000093488779e-07;0.0;0.0;0.0;8.000000093488779e-07
109,426000000,109.426,imu_link,0.02189440300358104,-0.03223106293267365,0.008532412410955918,0.0008055109383804951,-0.0011544576233427975,9.798946016946037,-4.615570795679636e-10,5.3304847850559934e-08,-4.9891055660004043e-08,0.9999999999999973,0.0;0.0;0.0;0.0;0.0;0.0;0.0;0.0;0.0,0.0015242580557242036;0.0;0.0;0.0;0.0015242580557242036;0.0;0.0;0.0;0.0015242580557242036,8.000000093488779e-07;0.0;0.0;0.0;8.000000093488779e-07;0.0;0.0;0.0;8.000000093488779e-07
109,427000000,109.427,imu_link,-0.026091548607628277,0.06679248873576102,0.0034400723410897465,0.0005058528615655977,0.0014108927456898377,9.799359072964975,-4.6155707952750764e-10,5.3304847850382255e-08,-4.989105566000446e-08,0.9999999999999973,0.0;0.0;0.0;0.0;0.0;0.0;0.0;0.0;0.0,0.0015242580557242036;0.0;0.0;0.0;0.0015242580557242036;0.0;0.0;0.0;0.0015242580557242036,8.000000093488779e-07;0.0;0.0;0.0;8.000000093488779e-07;0.0;0.0;0.0;8.000000093488779e-07
109,428000000,109.428,imu_link,0.09319812692075165,-0.048798762908318895,-0.012938496435135102,-0.0003756583311536049,-0.00019352097520980774,9.800395676399784,-4.61557079453029e-10,5.330484785085705e-08,-4.989105566000469e-08,0.9999999999999973,0.0;0.0;0.0;0.0;0.0;0.0;0.0;0.0;0.0,0.0015242580557242036;0.0;0.0;0.0;0.0015242580557242036;0.0;0.0;0.0;0.0015242580557242036,8.000000093488779e-07;0.0;0.0;0.0;8.000000093488779e-07;0.0;0.0;0.0;8.000000093488779e-07
109,429000000,109.429,imu_link,0.050076139423426626,-0.003766400898283316,-0.060819411776317577,-0.0022423424070752577,-1.1168370568146602e-05,9.800259074965803,-4.615570794113546e-10,5.330484785068133e-08,-4.989105566000486e-08,0.9999999999999973,0.0;0.0;0.0;0.0;0.0;0.0;0.0;0.0;0.0,0.0015242580557242036;0.0;0.0;0.0;0.0015242580557242036;0.0;0.0;0.0;0.0015242580557242036,8.000000093488779e-07;0.0;0.0;0.0;8.000000093488779e-07;0.0;0.0;0.0;8.000000093488779e-07
109,430000000,109.43,imu_link,0.03416206514284648,0.07250828325679061,-0.013330902035134172,0.001148714079951643,-0.0005496827725176362,9.800717011932775,-4.6155707936905085e-10,5.330484785050604e-08,-4.989105566000535e-08,0.9999999999999973,0.0;0.0;0.0;0.0;0.0;0.0;0.0;0.0;0.0,0.0015242580557242036;0.0;0.0;0.0;0.0015242580557242036;0.0;0.0;0.0;0.0015242580557242036,8.000000093488779e-07;0.0;0.0;0.0;8.000000093488779e-07;0.0;0.0;0.0;8.000000093488779e-07
109,431000000,109.431,imu_link,-0.0007084321028730296,-0.035499581591010895,-0.020658248352854257,0.00032925385356155526,0.00016529098165183877,9.801556319064755,-4.615570795728504e-10,5.3304847850376286e-08,-4.989105566000614e-08,0.9999999999999973,0.0;0.0;0.0;0.0;0.0;0.0;0.0;0.0;0.0,0.0015242580557242036;0.0;0.0;0.0;0.0015242580557242036;0.0;0.0;0.0;0.0015242580557242036,8.000000093488779e-07;0.0;0.0;0.0;8.000000093488779e-07;0.0;0.0;0.0;8.000000093488779e-07
109,432000000,109.432,imu_link,-0.007208052054329814,-0.07595201856441423,0.039432301028164085,-0.00020794498343750195,-0.0002525546059668333,9.797827570878999,-4.6155707949798e-10,5.3304847850849566e-08,-4.989105566000678e-08,0.9999999999999973,0.0;0.0;0.0;0.0;0.0;0.0;0.0;0.0;0.0,0.0015242580557242036;0.0;0.0;0.0;0.0015242580557242036;0.0;0.0;0.0;0.0015242580557242036,8.000000093488779e-07;0.0;0.0;0.0;8.000000093488779e-07;0.0;0.0;0.0;8.000000093488779e-07
109,433000000,109.433,imu_link,0.036842249519423026,-0.032517352139969466,0.053773345205471515,0.0009305553941350862,-0.0005237288522713488,9.80025679887161,-4.6155707945907984e-10,5.3304847850674925e-08,-4.9891055660007114e-08,0.9999999999999973,0.0;0.0;0.0;0.0;0.0;0.0;0.0;0.0;0.0,0.0015242580557242036;0.0;0.0;0.0;0.0015242580557242036;0.0;0.0;0.0;0.0015242580557242036,8.000000093488779e-07;0.0;0.0;0.0;8.000000093488779e-07;0.0;0.0;0.0;8.000000093488779e-07
109,434000000,109.434,imu_link,0.00356813318711589,0.02755708365810021,-0.03442066790856521,0.0006681292957355538,-0.0013052018473315309,9.802351780044594,-4.615570794167969e-10,5.330484785049747e-08,-4.9891055660007365e-08,0.9999999999999973,0.0;0.0;0.0;0.0;0.0;0.0;0.0;0.0;0.0,0.0015242580557242036;0.0;0.0;0.0;0.0015242580557242036;0.0;0.0;0.0;0.0015242580557242036,8.000000093488779e-07;0.0;0.0;0.0;8.000000093488779e-07;0.0;0.0;0.0;8.000000093488779e-07
109,435000000,109.435,imu_link,0.02547599445962388,-0.05136720395892743,-0.036696125905512314,-0.0015602887609579286,0.00037771844938969156,9.799661223948394,-4.6155707937876676e-10,5.330484785031936e-08,-4.9891055660007954e-08,0.9999999999999973,0.0;0.0;0.0;0.0;0.0;0.0;0.0;0.0;0.0,0.0015242580557242036;0.0;0.0;0.0;0.0015242580557242036;0.0;0.0;0.0;0.0015242580557242036,8.000000093488779e-07;0.0;0.0;0.0;8.000000093488779e-07;0.0;0.0;0.0;8.000000093488779e-07
109,436000000,109.436,imu_link,-0.023201534400285637,0.06789317184942822,-0.002014650790164375,-0.001649139141541415,0.00026186335444589325,9.799317741505686,-4.61557079588351e-10,5.330484785065365e-08,-4.989105566000877e-08,0.9999999999999973,0.0;0.0;0.0;0.0;0.0;0.0;0.0;0.0;0.0,0.0015242580557242036;0.0;0.0;0.0;0.0015242580557242036;0.0;0.0;0.0;0.0015242580557242036,8.000000093488779e-07;0.0;0.0;0.0;8.000000093488779e-07;0.0;0.0;0.0;8.000000093488779e-07
109,437000000,109.437,imu_link,-0.06001857978375874,0.024709188266926432,0.050014658023896284,-0.00026490851048658405,-0.00030158509146590673,9.800129733271783,-4.615570795537245e-10,5.330484785047597e-08,-4.989105566000923e-08,0.9999999999999973,0.0;0.0;0.0;0.0;0.0;0.0;0.0;0.0;0.0,0.0015242580557242036;0.0;0.0;0.0;0.0015242580557242036;0.0;0.0;0.0;0.0015242580557242036,8.000000093488779e-07;0.0;0.0;0.0;8.000000093488779e-07;0.0;0.0;0.0;8.000000093488779e-07
109,438000000,109.438,imu_link,0.0033124754400188795,0.005159408580287345,0.011956910761656744,-0.0004030494487740204,-0.0006627172899276021,9.798647893750479,-4.6155707951388196e-10,5.33048478502983e-08,-4.989105566000969e-08,0.9999999999999973,0.0;0.0;0.0;0.0;0.0;0.0;0.0;0.0;0.0,0.0015242580557242036;0.0;0.0;0.0;0.0015242580557242036;0.0;0.0;0.0;0.0015242580557242036,8.000000093488779e-07;0.0;0.0;0.0;8.000000093488779e-07;0.0;0.0;0.0;8.000000093488779e-07
109,439000000,109.439,imu_link,0.03484893105278735,-0.04287086784030454,0.04644702908216997,-0.0003795809556773965,-0.0012899928977334496,9.800601496734371,-4.6155707944247947e-10,5.3304847850772016e-08,-4.9891055660010164e-08,0.9999999999999973,0.0;0.0;0.0;0.0;0.0;0.0;0.0;0.0;0.0,0.0015242580557242036;0.0;0.0;0.0;0.0015242580557242036;0.0;0.0;0.0;0.0015242580557242036,8.000000093488779e-07;0.0;0.0;0.0;8.000000093488779e-07;0.0;0.0;0.0;8.000000093488779e-07
109,440000000,109.44,imu_link,-0.061927768785190365,-0.04609201823547461,0.013631272447694824,0.0007848085554941831,-0.0007897729189998786,9.800281916330185,-4.615570794011181e-10,5.3304847850594774e-08,-4.989105566001066e-08,0.9999999999999973,0.0;0.0;0.0;0.0;0.0;0.0;0.0;0.0;0.0,0.0015242580557242036;0.0;0.0;0.0;0.0015242580557242036;0.0;0.0;0.0;0.0015242580557242036,8.000000093488779e-07;0.0;0.0;0.0;8.000000093488779e-07;0.0;0.0;0.0;8.000000093488779e-07
109,441000000,109.441,imu_link,-0.04073154349042803,-0.056675423548770976,-0.03558877947436924,0.001306018120518611,-0.00016012834692031734,9.79908106523067,-4.6155707960788033e-10,5.330484785046372e-08,-4.989105566001148e-08,0.9999999999999973,0.0;0.0;0.0;0.0;0.0;0.0;0.0;0.0;0.0,0.0015242580557242036;0.0;0.0;0.0;0.0015242580557242036;0.0;0.0;0.0;0.0015242580557242036,8.000000093488779e-07;0.0;0.0;0.0;8.000000093488779e-07;0.0;0.0;0.0;8.000000093488779e-07
109,442000000,109.442,imu_link,-0.04925539711340862,-0.009627725985717171,-0.018443367946053748,6.942875881639115e-05,-0.0002804310487630227,9.800381969999968,-4.6155707956416384e-10,5.330484785028626e-08,-4.989105566001202e-08,0.9999999999999973,0.0;0.0;0.0;0.0;0.0;0.0;0.0;0.0;0.0,0.0015242580557242036;0.0;0.0;0.0;0.0015242580557242036;0.0;0.0;0.0;0.0015242580557242036,8.000000093488779e-07;0.0;0.0;0.0;8.000000093488779e-07;0.0;0.0;0.0;8.000000093488779e-07
109,443000000,109.443,imu_link,0.006610120759970446,-0.023707704926500418,-0.04072564300444853,0.00038909870067751204,-0.00036565534814885403,9.800233434009979,-4.6155707952322186e-10,5.330484785057155e-08,-4.989105566001222e-08,0.9999999999999973,0.0;0.0;0.0;0.0;0.0;0.0;0.0;0.0;0.0,0.0015242580557242036;0.0;0.0;0.0;0.0015242580557242036;0.0;0.0;0.0;0.0015242580557242036,8.000000093488779e-07;0.0;0.0;0.0;8.000000093488779e-07;0.0;0.0;0.0;8.000000093488779e-07
109,444000000,109.444,imu_link,-0.03193272327154854,-0.026632518231740652,0.0861662413348111,0.0010916364857409481,0.0005092142282614521,9.800057380263604,-4.6155707948187343e-10,5.330484785039387e-08,-4.989105566001248e-08,0.9999999999999973,0.0;0.0;0.0;0.0;0.0;0.0;0.0;0.0;0.0,0.0015242580557242036;0.0;0.0;0.0;0.0015242580557242036;0.0;0.0;0.0;0.0015242580557242036,8.000000093488779e-07;0.0;0.0;0.0;8.000000093488779e-07;0.0;0.0;0.0;8.000000093488779e-07
109,445000000,109.445,imu_link,-0.015601793299945125,0.024185509247886334,0.03593812838331203,0.0004951466331892338,-0.0002972649696853029,9.800728399508522,-4.615570794054236e-10,5.3304847850867585e-08,-4.98910556600128e-08,0.9999999999999973,0.0;0.0;0.0;0.0;0.0;0.0;0.0;0.0;0.0,0.0015242580557242036;0.0;0.0;0.0;0.0015242580557242036;0.0;0.0;0.0;0.0015242580557242036,8.000000093488779e-07;0.0;0.0;0.0;8.000000093488779e-07;0.0;0.0;0.0;8.000000093488779e-07
109,446000000,109.446,imu_link,-0.008301646652157216,0.03225522187572956,0.03285132750198889,0.0006265805998189796,-7.110937691838867e-05,9.798700049989625,-4.615570796114151e-10,5.330484785073804e-08,-4.9891055660013526e-08,0.9999999999999973,0.0;0.0;0.0;0.0;0.0;0.0;0.0;0.0;0.0,0.0015242580557242036;0.0;0.0;0.0;0.0015242580557242036;0.0;0.0;0.0;0.0015242580557242036,8.000000093488779e-07;0.0;0.0;0.0;8.000000093488779e-07;0.0;0.0;0.0;8.000000093488779e-07
109,447000000,109.447,imu_link,-0.038033816220138295,0.0004603293878884887,0.0025318564641737514,-0.0007430740976643097,-0.001140453854569944,9.799799994513954,-4.6155707957259353e-10,5.330484785056015e-08,-4.989105566001398e-08,0.9999999999999973,0.0;0.0;0.0;0.0;0.0;0.0;0.0;0.0;0.0,0.0015242580557242036;0.0;0.0;0.0;0.0015242580557242036;0.0;0.0;0.0;0.0015242580557242036,8.000000093488779e-07;0.0;0.0;0.0;8.000000093488779e-07;0.0;0.0;0.0;8.000000093488779e-07
109,448000000,109.448,imu_link,-0.032772051769270776,0.055200066387832036,0.013967614860527151,0.0008672838011218632,-0.0005152172823021501,9.800390403001382,-4.615570795318375e-10,5.330484785038594e-08,-4.989105566001405e-08,0.9999999999999973,0.0;0.0;0.0;0.0;0.0;0.0;0.0;0.0;0.0,0.0015242580557242036;0.0;0.0;0.0;0.0015242580557242036;0.0;0.0;0.0;0.0015242580557242036,8.000000093488779e-07;0.0;0.0;0.0;8.000000093488779e-07;0.0;0.0;0.0;8.000000093488779e-07
109,449000000,109.449,imu_link,-0.03633773695806257,0.034690017375657224,-0.01853567988324567,-0.0013688308319893625,0.000638315176790084,9.800209034058083,-4.6155707945517555e-10,5.3304847850858784e-08,-4.989105566001464e-08,0.9999999999999973,0.0;0.0;0.0;0.0;0.0;0.0;0.0;0.0;0.0,0.0015242580557242036;0.0;0.0;0.0;0.0015242580557242036;0.0;0.0;0.0;0.0015242580557242036,8.000000093488779e-07;0.0;0.0;0.0;8.000000093488779e-07;0.0;0.0;0.0;8.000000093488779e-07
109,450000000,109.45,imu_link,-0.058022789987548305,-0.008434988330810753,-0.04463166871287508,-0.0003361350196892666,-0.0006677103072599528,9.79946590520511,-4.6155707941290693e-10,5.330484785068479e-08,-4.9891055660014876e-08,0.9999999999999973,0.0;0.0;0.0;0.0;0.0;0.0;0.0;0.0;0.0,0.0015242580557242036;0.0;0.0;0.0;0.0015242580557242036;0.0;0.0;0.0;0.0015242580557242036,8.000000093488779e-07;0.0;0.0;0.0;8.000000093488779e-07;0.0;0.0;0.0;8.000000093488779e-07
109,451000000,109.451,imu_link,-0.03394936731737432,0.06564656074452785,0.04642956973903458,-1.43136076947154e-05,-0.00021148934378722697,9.7996181546432,-4.615570793737014e-10,5.3304847850506676e-08,-4.989105566001566e-08,0.9999999999999973,0.0;0.0;0.0;0.0;0.0;0.0;0.0;0.0;0.0,0.0015242580557242036;0.0;0.0;0.0;0.0015242580557242036;0.0;0.0;0.0;0.0015242580557242036,8.000000093488779e-07;0.0;0.0;0.0;8.000000093488779e-07;0.0;0.0;0.0;8.000000093488779e-07
109,452000000,109.452,imu_link,-0.01763399869879945,0.009562652767075951,0.03545602767685068,0.0019691758781230683,-0.000748319468068683,9.798402026553614,-4.615570795724977e-10,5.3304847850373884e-08,-4.9891055660016147e-08,0.9999999999999973,0.0;0.0;0.0;0.0;0.0;0.0;0.0;0.0;0.0,0.0015242580557242036;0.0;0.0;0.0;0.0015242580557242036;0.0;0.0;0.0;0.0015242580557242036,8.000000093488779e-07;0.0;0.0;0.0;8.000000093488779e-07;0.0;0.0;0.0;8.000000093488779e-07
109,453000000,109.453,imu_link,-0.010143745039733231,-0.017614308357415683,-0.03875630004897133,0.00019740295689768116,-0.0007069474488161376,9.799744317407976,-4.615570794994229e-10,5.330484785084434e-08,-4.989105566001684e-08,0.9999999999999973,0.0;0.0;0.0;0.0;0.0;0.0;0.0;0.0;0.0,0.0015242580557242036;0.0;0.0;0.0;0.0015242580557242036;0.0;0.0;0.0;0.0015242580557242036,8.000000093488779e-07;0.0;0.0;0.0;8.000000093488779e-07;0.0;0.0;0.0;8.000000093488779e-07
109,454000000,109.454,imu_link,-0.05733496145993621,0.042985660002750364,-0.0023240680203866024,0.0002489349224045729,-0.0006860500926908095,9.799757306928798,-4.6155707945714605e-10,5.3304847850668394e-08,-4.989105566001684e-08,0.9999999999999973,0.0;0.0;0.0;0.0;0.0;0.0;0.0;0.0;0.0,0.0015242580557242036;0.0;0.0;0.0;0.0015242580557242036;0.0;0.0;0.0;0.0015242580557242036,8.000000093488779e-07;0.0;0.0;0.0;8.000000093488779e-07;0.0;0.0;0.0;8.000000093488779e-07
109,455000000,109.455,imu_link,0.06435206204445457,0.013648978698366824,0.040076690429734524,0.0007964353033797099,-0.0004172565806157065,9.800985630504899,-4.6155707941754597e-10,5.3304847850492886e-08,-4.989105566001733e-08,0.9999999999999973,0.0;0.0;0.0;0.0;0.0;0.0;0.0;0.0;0.0,0.0015242580557242036;0.0;0.0;0.0;0.0015242580557242036;0.0;0.0;0.0;0.0015242580557242036,8.000000093488779e-07;0.0;0.0;0.0;8.000000093488779e-07;0.0;0.0;0.0;8.000000093488779e-07
109,456000000,109.456,imu_link,0.01649104283132314,-0.058042605437230055,-0.0071363251228351845,0.0005693379780293293,0.00034267409123636065,9.80113306950492,-4.6155707937533453e-10,5.330484785031651e-08,-4.989105566001762e-08,0.9999999999999973,0.0;0.0;0.0;0.0;0.0;0.0;0.0;0.0;0.0,0.0015242580557242036;0.0;0.0;0.0;0.0015242580557242036;0.0;0.0;0.0;0.0015242580557242036,8.000000093488779e-07;0.0;0.0;0.0;8.000000093488779e-07;0.0;0.0;0.0;8.000000093488779e-07
109,457000000,109.457,imu_link,-0.043317442416765044,-0.0154589744776472,-0.009280076099422675,-0.0012581096815584233,-0.0010751062181677765,9.8017686130601,-4.6155707958242757e-10,5.3304847850651876e-08,-4.989105566001792e-08,0.9999999999999973,0.0;0.0;0.0;0.0;0.0;0.0;0.0;0.0;0.0,0.0015242580557242036;0.0;0.0;0.0;0.0015242580557242036;0.0;0.0;0.0;0.0015242580557242036,8.000000093488779e-07;0.0;0.0;0.0;8.000000093488779e-07;0.0;0.0;0.0;8.000000093488779e-07
109,458000000,109.458,imu_link,-0.025701611445525793,0.014245352343428809,0.0460025191631957,0.0008280188628038417,-0.0014592466077283201,9.79913665909377,-4.615570795464779e-10,5.330484785047593e-08,-4.9891055660018284e-08,0.9999999999999973,0.0;0.0;0.0;0.0;0.0;0.0;0.0;0.0;0.0,0.0015242580557242036;0.0;0.0;0.0;0.0015242580557242036;0.0;0.0;0.0;0.0015242580557242036,8.000000093488779e-07;0.0;0.0;0.0;8.000000093488779e-07;0.0;0.0;0.0;8.000000093488779e-07
109,459000000,109.459,imu_link,0.024144820323430478,-0.012433094355654354,-0.005687609681197243,0.000958848170319525,-0.0005359116437755666,9.802439763316581,-4.615570795053922e-10,5.3304847850298684e-08,-4.98910556600185e-08,0.9999999999999973,0.0;0.0;0.0;0.0;0.0;0.0;0.0;0.0;0.0,0.0015242580557242036;0.0;0.0;0.0;0.0015242580557242036;0.0;0.0;0.0;0.0015242580557242036,8.000000093488779e-07;0.0;0.0;0.0;8.000000093488779e-07;0.0;0.0;0.0;8.000000093488779e-07
109,460000000,109.46,imu_link,0.02156069112245796,-0.018953395373022545,0.002023758239683923,0.0013007797354708764,-4.363881738019023e-06,9.798882219362236,-4.6155707942974755e-10,5.330484785077326e-08,-4.989105566001901e-08,0.9999999999999973,0.0;0.0;0.0;0.0;0.0;0.0;0.0;0.0;0.0,0.0015242580557242036;0.0;0.0;0.0;0.0015242580557242036;0.0;0.0;0.0;0.0015242580557242036,8.000000093488779e-07;0.0;0.0;0.0;8.000000093488779e-07;0.0;0.0;0.0;8.000000093488779e-07
109,461000000,109.461,imu_link,0.01671178038002258,-0.001522198474504074,0.0288945566656034,0.0020750858381039764,-0.0007309697622214787,9.799208474773042,-4.615570793852781e-10,5.3304847850595145e-08,-4.989105566001947e-08,0.9999999999999973,0.0;0.0;0.0;0.0;0.0;0.0;0.0;0.0;0.0,0.0015242580557242036;0.0;0.0;0.0;0.0015242580557242036;0.0;0.0;0.0;0.0015242580557242036,8.000000093488779e-07;0.0;0.0;0.0;8.000000093488779e-07;0.0;0.0;0.0;8.000000093488779e-07
109,462000000,109.462,imu_link,0.015795642876174004,0.01868079638416622,0.00603859213461684,-0.0005123160146078573,-0.00034440791960235127,9.802212575409936,-4.6155707958845544e-10,5.3304847850464953e-08,-4.989105566001994e-08,0.9999999999999973,0.0;0.0;0.0;0.0;0.0;0.0;0.0;0.0;0.0,0.0015242580557242036;0.0;0.0;0.0;0.0015242580557242036;0.0;0.0;0.0;0.0015242580557242036,8.000000093488779e-07;0.0;0.0;0.0;8.000000093488779e-07;0.0;0.0;0.0;8.000000093488779e-07
109,463000000,109.463,imu_link,0.017435571275795165,0.006807994122896005,-0.01783543455165222,0.00010710275258399228,0.00043009196037541126,9.800405657992243,-4.615570795484952e-10,5.3304847850289015e-08,-4.989105566002008e-08,0.9999999999999973,0.0;0.0;0.0;0.0;0.0;0.0;0.0;0.0;0.0,0.0015242580557242036;0.0;0.0;0.0;0.0015242580557242036;0.0;0.0;0.0;0.0015242580557242036,8.000000093488779e-07;0.0;0.0;0.0;8.000000093488779e-07;0.0;0.0;0.0;8.000000093488779e-07
109,464000000,109.464,imu_link,-0.033784644163578736,0.004052202341523482,0.028128269483298787,0.0006969940652486852,-0.00013076887805304707,9.798786420410636,-4.615570795082758e-10,5.330484785057386e-08,-4.98910556600206e-08,0.9999999999999973,0.0;0.0;0.0;0.0;0.0;0.0;0.0;0.0;0.0,0.0015242580557242036;0.0;0.0;0.0;0.0015242580557242036;0.0;0.0;0.0;0.0015242580557242036,8.000000093488779e-07;0.0;0.0;0.0;8.000000093488779e-07;0.0;0.0;0.0;8.000000093488779e-07
109,465000000,109.465,imu_link,-0.05533441822398064,0.07697193361689811,0.014698382719295805,-0.0006579467298022231,-0.00027848312847275863,9.800926180372702,-4.615570794725327e-10,5.330484785039987e-08,-4.9891055660020805e-08,0.9999999999999973,0.0;0.0;0.0;0.0;0.0;0.0;0.0;0.0;0.0,0.0015242580557242036;0.0;0.0;0.0;0.0015242580557242036;0.0;0.0;0.0;0.0015242580557242036,8.000000093488779e-07;0.0;0.0;0.0;8.000000093488779e-07;0.0;0.0;0.0;8.000000093488779e-07
109,466000000,109.466,imu_link,-0.04190537153487496,-0.050372320296492565,-0.18345701423133978,0.00038439389033816205,0.0003108709276892607,9.799627717822812,-4.615570794005744e-10,5.3304847850875314e-08,-4.9891055660021315e-08,0.9999999999999973,0.0;0.0;0.0;0.0;0.0;0.0;0.0;0.0;0.0,0.0015242580557242036;0.0;0.0;0.0;0.0015242580557242036;0.0;0.0;0.0;0.0015242580557242036,8.000000093488779e-07;0.0;0.0;0.0;8.000000093488779e-07;0.0;0.0;0.0;8.000000093488779e-07
109,467000000,109.467,imu_link,-0.10981713768116634,0.07433505040374694,0.09118641598001136,4.013188448709837e-05,0.0002858910669038152,9.798610925778528,-4.6155707960544475e-10,5.330484785074752e-08,-4.989105566002162e-08,0.9999999999999973,0.0;0.0;0.0;0.0;0.0;0.0;0.0;0.0;0.0,0.0015242580557242036;0.0;0.0;0.0;0.0015242580557242036;0.0;0.0;0.0;0.0015242580557242036,8.000000093488779e-07;0.0;0.0;0.0;8.000000093488779e-07;0.0;0.0;0.0;8.000000093488779e-07
109,468000000,109.468,imu_link,0.021621325991697006,0.01068399270506428,0.026081861322989956,0.0010099640751656807,6.851039558533124e-05,9.800435491513797,-4.6155707956690847e-10,5.3304847850570713e-08,-4.9891055660021884e-08,0.9999999999999973,0.0;0.0;0.0;0.0;0.0;0.0;0.0;0.0;0.0,0.0015242580557242036;0.0;0.0;0.0;0.0015242580557242036;0.0;0.0;0.0;0.0015242580557242036,8.000000093488779e-07;0.0;0.0;0.0;8.000000093488779e-07;0.0;0.0;0.0;8.000000093488779e-07
109,469000000,109.469,imu_link,0.013910640511666456,0.01989739950748106,-0.0014715601786603571,-9.207915941501553e-05,0.0008143443829499475,9.799276832324676,-4.6155707952884043e-10,5.3304847850393465e-08,-4.9891055660022374e-08,0.9999999999999973,0.0;0.0;0.0;0.0;0.0;0.0;0.0;0.0;0.0,0.0015242580557242036;0.0;0.0;0.0;0.0015242580557242036;0.0;0.0;0.0;0.0015242580557242036,8.000000093488779e-07;0.0;0.0;0.0;8.000000093488779e-07;0.0;0.0;0.0;8.000000093488779e-07
109,470000000,109.47,imu_link,-0.04192238148163494,0.022417632919630715,-0.04637341699975731,0.00017905928265176253,0.00010507086768476418,9.799319291037367,-4.615570794545623e-10,5.3304847850867175e-08,-4.98910556600228e-08,0.9999999999999973,0.0;0.0;0.0;0.0;0.0;0.0;0.0;0.0;0.0,0.0015242580557242036;0.0;0.0;0.0;0.0015242580557242036;0.0;0.0;0.0;0.0015242580557242036,8.000000093488779e-07;0.0;0.0;0.0;8.000000093488779e-07;0.0;0.0;0.0;8.000000093488779e-07
109,471000000,109.471,imu_link,-0.017331753151983226,-0.015280708579280171,-0.029118367961203675,0.00016293839586624344,0.00013494460067833337,9.799970947039125,-4.615570794134746e-10,5.330484785069059e-08,-4.989105566002328e-08,0.9999999999999973,0.0;0.0;0.0;0.0;0.0;0.0;0.0;0.0;0.0,0.0015242580557242036;0.0;0.0;0.0;0.0015242580557242036;0.0;0.0;0.0;0.0015242580557242036,8.000000093488779e-07;0.0;0.0;0.0;8.000000093488779e-07;0.0;0.0;0.0;8.000000093488779e-07
109,472000000,109.472,imu_link,0.009137710105222394,0.0042708813176546385,0.028587489888152885,0.0007166627741708019,-0.0010868887182513215,9.799834154530176,-4.615570793706792e-10,5.330484785051508e-08,-4.989105566002368e-08,0.9999999999999973,0.0;0.0;0.0;0.0;0.0;0.0;0.0;0.0;0.0,0.0015242580557242036;0.0;0.0;0.0;0.0015242580557242036;0.0;0.0;0.0;0.0015242580557242036,8.000000093488779e-07;0.0;0.0;0.0;8.000000093488779e-07;0.0;0.0;0.0;8.000000093488779e-07
109,473000000,109.473,imu_link,0.034056106219790404,-0.0789319951215083,0.014229190947435,0.0005482774327356877,0.00039880706883456955,9.800668597902051,-4.615570795737884e-10,5.330484785038424e-08,-4.9891055660024736e-08,0.9999999999999973,0.0;0.0;0.0;0.0;0.0;0.0;0.0;0.0;0.0,0.0015242580557242036;0.0;0.0;0.0;0.0015242580557242036;0.0;0.0;0.0;0.0015242580557242036,8.000000093488779e-07;0.0;0.0;0.0;8.000000093488779e-07;0.0;0.0;0.0;8.000000093488779e-07
109,474000000,109.474,imu_link,-0.03154178635798894,-0.007550378168827828,-0.1243396008769929,0.0020797436336641765,-0.0010083289133356822,9.799143034220855,-4.615570794959382e-10,5.330484785085774e-08,-4.989105566002542e-08,0.9999999999999973,0.0;0.0;0.0;0.0;0.0;0.0;0.0;0.0;0.0,0.0015242580557242036;0.0;0.0;0.0;0.0015242580557242036;0.0;0.0;0.0;0.0015242580557242036,8.000000093488779e-07;0.0;0.0;0.0;8.000000093488779e-07;0.0;0.0;0.0;8.000000093488779e-07
109,475000000,109.475,imu_link,-0.036832328843311384,-0.01650233202411665,-0.010813332427825756,4.908285701742118e-06,-0.0002065587294784436,9.798690387593807,-4.615570794556671e-10,5.330484785068267e-08,-4.989105566002576e-08,0.9999999999999973,0.0;0.0;0.0;0.0;0.0;0.0;0.0;0.0;0.0,0.0015242580557242036;0.0;0.0;0.0;0.0015242580557242036;0.0;0.0;0.0;0.0015242580557242036,8.000000093488779e-07;0.0;0.0;0.0;8.000000093488779e-07;0.0;0.0;0.0;8.000000093488779e-07
109,476000000,109.476,imu_link,-0.036238908591773776,-0.023794099578523416,-0.007071628767166712,8.894445205553261e-05,-0.001757760545492246,9.800726352491028,-4.6155707941221257e-10,5.330484785050694e-08,-4.9891055660026007e-08,0.9999999999999973,0.0;0.0;0.0;0.0;0.0;0.0;0.0;0.0;0.0,0.0015242580557242036;0.0;0.0;0.0;0.0015242580557242036;0.0;0.0;0.0;0.0015242580557242036,8.000000093488779e-07;0.0;0.0;0.0;8.000000093488779e-07;0.0;0.0;0.0;8.000000093488779e-07
109,477000000,109.477,imu_link,0.03359428397964929,0.004246675636777119,-0.03159729477162832,-0.0010336273376162694,-0.0002138898160570316,9.799983896679858,-4.6155707937300436e-10,5.3304847850330566e-08,-4.989105566002609e-08,0.9999999999999973,0.0;0.0;0.0;0.0;0.0;0.0;0.0;0.0;0.0,0.0015242580557242036;0.0;0.0;0.0;0.0015242580557242036;0.0;0.0;0.0;0.0015242580557242036,8.000000093488779e-07;0.0;0.0;0.0;8.000000093488779e-07;0.0;0.0;0.0;8.000000093488779e-07
109,478000000,109.478,imu_link,-0.039316303849466626,0.011735726364907235,-0.027055566472984873,-0.0002869390733744359,-0.0006322459881243739,9.800008128644532,-4.6155707958393573e-10,5.330484785066572e-08,-4.9891055660026695e-08,0.9999999999999973,0.0;0.0;0.0;0.0;0.0;0.0;0.0;0.0;0.0,0.0015242580557242036;0.0;0.0;0.0;0.0015242580557242036;0.0;0.0;0.0;0.0015242580557242036,8.000000093488779e-07;0.0;0.0;0.0;8.000000093488779e-07;0.0;0.0;0.0;8.000000093488779e-07
109,479000000,109.479,imu_link,0.021898257556625448,-0.06748220267481032,-0.03483128585658777,-0.0017095149749325744,-0.0005631625802367105,9.798874945326583,-4.61557079545225e-10,5.330484785048826e-08,-4.989105566002713e-08,0.9999999999999973,0.0;0.0;0.0;0.0;0.0;0.0;0.0;0.0;0.0,0.0015242580557242036;0.0;0.0;0.0;0.0015242580557242036;0.0;0.0;0.0;0.0015242580557242036,8.000000093488779e-07;0.0;0.0;0.0;8.000000093488779e-07;0.0;0.0;0.0;8.000000093488779e-07
109,480000000,109.48,imu_link,-0.026406994904835307,-0.07231545525974016,-0.011025475135603863,0.000860266164540878,0.001154660275211657,9.799852182770245,-4.615570795058141e-10,5.3304847850312104e-08,-4.989105566002759e-08,0.9999999999999973,0.0;0.0;0.0;0.0;0.0;0.0;0.0;0.0;0.0,0.0015242580557242036;0.0;0.0;0.0;0.0015242580557242036;0.0;0.0;0.0;0.0015242580557242036,8.000000093488779e-07;0.0;0.0;0.0;8.000000093488779e-07;0.0;0.0;0.0;8.000000093488779e-07
109,481000000,109.481,imu_link,-0.05218045899373019,-0.020171133960303234,-0.02294161626069995,3.688729903327576e-05,-0.0006993235890616842,9.800518106374119,-4.615570794361476e-10,5.3304847850786905e-08,-4.9891055660027985e-08,0.9999999999999973,0.0;0.0;0.0;0.0;0.0;0.0;0.0;0.0;0.0,0.0015242580557242036;0.0;0.0;0.0;0.0015242580557242036;0.0;0.0;0.0;0.0015242580557242036,8.000000093488779e-07;0.0;0.0;0.0;8.000000093488779e-07;0.0;0.0;0.0;8.000000093488779e-07
109,482000000,109.482,imu_link,0.000859416514947088,0.002257513561159104,-0.026171269141758834,0.0006451894575852887,0.0004767917668467472,9.797434442423821,-4.61557079395864e-10,5.330484785061313e-08,-4.989105566002819e-08,0.9999999999999973,0.0;0.0;0.0;0.0;0.0;0.0;0.0;0.0;0.0,0.0015242580557242036;0.0;0.0;0.0;0.0015242580557242036;0.0;0.0;0.0;0.0015242580557242036,8.000000093488779e-07;0.0;0.0;0.0;8.000000093488779e-07;0.0;0.0;0.0;8.000000093488779e-07
109,483000000,109.483,imu_link,0.05146674846802418,-0.06183302121474981,0.03461437796138089,-0.0016645309840912495,0.0010327426374284123,9.799284835285459,-4.615570796007634e-10,5.330484785048359e-08,-4.989105566002876e-08,0.9999999999999973,0.0;0.0;0.0;0.0;0.0;0.0;0.0;0.0;0.0,0.0015242580557242036;0.0;0.0;0.0;0.0015242580557242036;0.0;0.0;0.0;0.0015242580557242036,8.000000093488779e-07;0.0;0.0;0.0;8.000000093488779e-07;0.0;0.0;0.0;8.000000093488779e-07
109,484000000,109.484,imu_link,0.014917578468346886,-0.022559222900023514,-0.0564830735168952,0.0007987537895039206,0.0003590829049716852,9.799607152325502,-4.6155707955872905e-10,5.3304847850307644e-08,-4.9891055660029256e-08,0.9999999999999973,0.0;0.0;0.0;0.0;0.0;0.0;0.0;0.0;0.0,0.0015242580557242036;0.0;0.0;0.0;0.0015242580557242036;0.0;0.0;0.0;0.0015242580557242036,8.000000093488779e-07;0.0;0.0;0.0;8.000000093488779e-07;0.0;0.0;0.0;8.000000093488779e-07
109,485000000,109.485,imu_link,-0.020732686335879907,-0.009569075611582071,0.00022698197923212105,0.0006611241687802886,-0.0009424780318829886,9.799258860861451,-4.61557079520848e-10,5.33048478505927e-08,-4.989105566002988e-08,0.9999999999999973,0.0;0.0;0.0;0.0;0.0;0.0;0.0;0.0;0.0,0.0015242580557242036;0.0;0.0;0.0;0.0015242580557242036;0.0;0.0;0.0;0.0015242580557242036,8.000000093488779e-07;0.0;0.0;0.0;8.000000093488779e-07;0.0;0.0;0.0;8.000000093488779e-07
109,486000000,109.486,imu_link,-0.0026054813427754285,-0.07174588710857047,0.012378395341318136,-4.63116944964032e-05,-0.00017799070485686615,9.800950582144651,-4.6155707947836944e-10,5.330484785041503e-08,-4.98910556600303e-08,0.9999999999999973,0.0;0.0;0.0;0.0;0.0;0.0;0.0;0.0;0.0,0.0015242580557242036;0.0;0.0;0.0;0.0015242580557242036;0.0;0.0;0.0;0.0015242580557242036,8.000000093488779e-07;0.0;0.0;0.0;8.000000093488779e-07;0.0;0.0;0.0;8.000000093488779e-07
109,487000000,109.487,imu_link,0.02356017709085458,-0.013862521001683654,0.018101591417366843,0.00026821621253566414,0.0004182052703049567,9.800556841165946,-4.615570793992603e-10,5.3304847850887874e-08,-4.989105566003086e-08,0.9999999999999973,0.0;0.0;0.0;0.0;0.0;0.0;0.0;0.0;0.0,0.0015242580557242036;0.0;0.0;0.0;0.0015242580557242036;0.0;0.0;0.0;0.0015242580557242036,8.000000093488779e-07;0.0;0.0;0.0;8.000000093488779e-07;0.0;0.0;0.0;8.000000093488779e-07
109,488000000,109.488,imu_link,0.025198662642073596,-0.04662208076598317,0.040442870667345816,0.0005773726748638507,-0.001334402981113287,9.799390901360775,-4.6155707960388474e-10,5.330484785075617e-08,-4.989105566003151e-08,0.9999999999999973,0.0;0.0;0.0;0.0;0.0;0.0;0.0;0.0;0.0,0.0015242580557242036;0.0;0.0;0.0;0.0015242580557242036;0.0;0.0;0.0;0.0015242580557242036,8.000000093488779e-07;0.0;0.0;0.0;8.000000093488779e-07;0.0;0.0;0.0;8.000000093488779e-07
109,489000000,109.489,imu_link,0.0005191316393684666,0.006185879009371043,0.04014724102580788,0.0002545359573414364,-0.0007692854178555354,9.799047134542539,-4.6155707956604453e-10,5.330484785057914e-08,-4.989105566003183e-08,0.9999999999999973,0.0;0.0;0.0;0.0;0.0;0.0;0.0;0.0;0.0,0.0015242580557242036;0.0;0.0;0.0;0.0015242580557242036;0.0;0.0;0.0;0.0015242580557242036,8.000000093488779e-07;0.0;0.0;0.0;8.000000093488779e-07;0.0;0.0;0.0;8.000000093488779e-07
109,490000000,109.49,imu_link,-0.041028661131465353,-0.03602244521970843,0.07425478468269804,0.001467853475092806,-0.001502017696132799,9.800176547491805,-4.6155707952659836e-10,5.330484785040124e-08,-4.989105566003238e-08,0.9999999999999973,0.0;0.0;0.0;0.0;0.0;0.0;0.0;0.0;0.0,0.0015242580557242036;0.0;0.0;0.0;0.0015242580557242036;0.0;0.0;0.0;0.0015242580557242036,8.000000093488779e-07;0.0;0.0;0.0;8.000000093488779e-07;0.0;0.0;0.0;8.000000093488779e-07
109,491000000,109.491,imu_link,0.024361838022632427,0.05622765426829787,-0.01730223213225386,-0.0004916361888741386,0.0008167616808214474,9.801033967201095,-4.615570794459181e-10,5.3304847850876036e-08,-4.989105566003284e-08,0.9999999999999973,0.0;0.0;0.0;0.0;0.0;0.0;0.0;0.0;0.0,0.0015242580557242036;0.0;0.0;0.0;0.0015242580557242036;0.0;0.0;0.0;0.0015242580557242036,8.000000093488779e-07;0.0;0.0;0.0;8.000000093488779e-07;0.0;0.0;0.0;8.000000093488779e-07
109,492000000,109.492,imu_link,0.006329588606196231,0.01763463875669014,0.029920312548668934,6.497612276156107e-05,8.531526468461418e-05,9.80131237522151,-4.6155707940382056e-10,5.330484785069836e-08,-4.989105566003306e-08,0.9999999999999973,0.0;0.0;0.0;0.0;0.0;0.0;0.0;0.0;0.0,0.0015242580557242036;0.0;0.0;0.0;0.0015242580557242036;0.0;0.0;0.0;0.0015242580557242036,8.000000093488779e-07;0.0;0.0;0.0;8.000000093488779e-07;0.0;0.0;0.0;8.000000093488779e-07
109,493000000,109.493,imu_link,0.0078106052153189,-0.08914091958782175,0.030095235860950597,-0.00010704217012171528,0.001299983228135072,9.799186315368487,-4.6155707960809607e-10,5.330484785056861e-08,-4.9891055660033676e-08,0.9999999999999973,0.0;0.0;0.0;0.0;0.0;0.0;0.0;0.0;0.0,0.0015242580557242036;0.0;0.0;0.0;0.0015242580557242036;0.0;0.0;0.0;0.0015242580557242036,8.000000093488779e-07;0.0;0.0;0.0;8.000000093488779e-07;0.0;0.0;0.0;8.000000093488779e-07
109,494000000,109.494,imu_link,-0.03356305730436405,-0.08093817966234379,-0.008052895041174799,-0.0004103703327021142,0.00040551544842772167,9.799215718540387,-4.615570795678227e-10,5.3304847850392664e-08,-4.98910556600341e-08,0.9999999999999973,0.0;0.0;0.0;0.0;0.0;0.0;0.0;0.0;0.0,0.0015242580557242036;0.0;0.0;0.0;0.0015242580557242036;0.0;0.0;0.0;0.0015242580557242036,8.000000093488779e-07;0.0;0.0;0.0;8.000000093488779e-07;0.0;0.0;0.0;8.000000093488779e-07
109,495000000,109.495,imu_link,0.05691619184154419,0.019718857487576073,0.08623947431173785,0.001420777057079109,0.0011798242430159382,9.800642178426482,-4.6155707949419945e-10,5.330484785086768e-08,-4.989105566003433e-08,0.9999999999999973,0.0;0.0;0.0;0.0;0.0;0.0;0.0;0.0;0.0,0.0015242580557242036;0.0;0.0;0.0;0.0015242580557242036;0.0;0.0;0.0;0.0015242580557242036,8.000000093488779e-07;0.0;0.0;0.0;8.000000093488779e-07;0.0;0.0;0.0;8.000000093488779e-07
109,496000000,109.496,imu_link,0.009521541342764657,-0.02884389498975478,0.009460444108676441,-0.000291813287917167,0.001511574004637247,9.800307460157219,-4.6155707945484396e-10,5.330484785069131e-08,-4.989105566003472e-08,0.9999999999999973,0.0;0.0;0.0;0.0;0.0;0.0;0.0;0.0;0.0,0.0015242580557242036;0.0;0.0;0.0;0.0015242580557242036;0.0;0.0;0.0;0.0015242580557242036,8.000000093488779e-07;0.0;0.0;0.0;8.000000093488779e-07;0.0;0.0;0.0;8.000000093488779e-07
109,497000000,109.497,imu_link,0.03564604274137903,0.033794096040337396,0.025339073130536988,0.0006004763819847272,0.00023004301861899145,9.799319167166043,-4.615570794151657e-10,5.3304847850514935e-08,-4.9891055660035384e-08,0.9999999999999973,0.0;0.0;0.0;0.0;0.0;0.0;0.0;0.0;0.0,0.0015242580557242036;0.0;0.0;0.0;0.0015242580557242036;0.0;0.0;0.0;0.0015242580557242036,8.000000093488779e-07;0.0;0.0;0.0;8.000000093488779e-07;0.0;0.0;0.0;8.000000093488779e-07
109,498000000,109.498,imu_link,-0.04874966823084686,-0.06130236473020471,0.015346458175544527,-0.001834836114149861,-0.00013758678145949234,9.8001374287042,-4.6155707937520756e-10,5.330484785033964e-08,-4.9891055660036025e-08,0.9999999999999973,0.0;0.0;0.0;0.0;0.0;0.0;0.0;0.0;0.0,0.0015242580557242036;0.0;0.0;0.0;0.0015242580557242036;0.0;0.0;0.0;0.0015242580557242036,8.000000093488779e-07;0.0;0.0;0.0;8.000000093488779e-07;0.0;0.0;0.0;8.000000093488779e-07
109,499000000,109.499,imu_link,0.015245827845129584,0.017111587612729583,0.009241619268618969,-0.0009631504110189795,-0.00029324537940406424,9.799604547138415,-4.6155707958625276e-10,5.330484785067545e-08,-4.989105566003667e-08,0.9999999999999973,0.0;0.0;0.0;0.0;0.0;0.0;0.0;0.0;0.0,0.0015242580557242036;0.0;0.0;0.0;0.0015242580557242036;0.0;0.0;0.0;0.0015242580557242036,8.000000093488779e-07;0.0;0.0;0.0;8.000000093488779e-07;0.0;0.0;0.0;8.000000093488779e-07
109,500000000,109.5,imu_link,-0.013990507639226137,-0.02389033782509886,-0.05080651456194681,0.0002568859472970601,-0.0013291399113262259,9.799900130367073,-4.6155707954605153e-10,5.330484785049907e-08,-4.9891055660037e-08,0.9999999999999973,0.0;0.0;0.0;0.0;0.0;0.0;0.0;0.0;0.0,0.0015242580557242036;0.0;0.0;0.0;0.0015242580557242036;0.0;0.0;0.0;0.0015242580557242036,8.000000093488779e-07;0.0;0.0;0.0;8.000000093488779e-07;0.0;0.0;0.0;8.000000093488779e-07
109,501000000,109.501,imu_link,0.07249413546131668,0.005220101975119649,0.06592057567157804,0.0011967569530473687,0.0009945635744363695,9.799815810382409,-4.6155707950435847e-10,5.3304847850320746e-08,-4.9891055660037905e-08,0.9999999999999973,0.0;0.0;0.0;0.0;0.0;0.0;0.0;0.0;0.0,0.0015242580557242036;0.0;0.0;0.0;0.0015242580557242036;0.0;0.0;0.0;0.0015242580557242036,8.000000093488779e-07;0.0;0.0;0.0;8.000000093488779e-07;0.0;0.0;0.0;8.000000093488779e-07
109,502000000,109.502,imu_link,-0.010446141783314484,-0.017402490334851653,-0.013787331197547992,0.0015035198163682406,5.4716384826797296e-05,9.800240203758035,-4.6155707942785057e-10,5.330484785079576e-08,-4.989105566003815e-08,0.9999999999999973,0.0;0.0;0.0;0.0;0.0;0.0;0.0;0.0;0.0,0.0015242580557242036;0.0;0.0;0.0;0.0015242580557242036;0.0;0.0;0.0;0.0015242580557242036,8.000000093488779e-07;0.0;0.0;0.0;8.000000093488779e-07;0.0;0.0;0.0;8.000000093488779e-07
109,503000000,109.503,imu_link,-0.05161196101076569,-0.05468434279765209,-0.011743464507457634,-0.0007839919382941682,0.00010704376605332807,9.799583208893747,-4.615570793891897e-10,5.330484785062199e-08,-4.989105566003894e-08,0.9999999999999973,0.0;0.0;0.0;0.0;0.0;0.0;0.0;0.0;0.0,0.0015242580557242036;0.0;0.0;0.0;0.0015242580557242036;0.0;0.0;0.0;0.0015242580557242036,8.000000093488779e-07;0.0;0.0;0.0;8.000000093488779e-07;0.0;0.0;0.0;8.000000093488779e-07
109,504000000,109.504,imu_link,0.021927342494292578,-0.00012605337601445045,0.051583858991961155,0.0002883265171188049,0.00028351090062429265,9.799880632063918,-4.6155707959260303e-10,5.330484785049224e-08,-4.989105566003941e-08,0.9999999999999973,0.0;0.0;0.0;0.0;0.0;0.0;0.0;0.0;0.0,0.0015242580557242036;0.0;0.0;0.0;0.0015242580557242036;0.0;0.0;0.0;0.0015242580557242036,8.000000093488779e-07;0.0;0.0;0.0;8.000000093488779e-07;0.0;0.0;0.0;8.000000093488779e-07
109,505000000,109.505,imu_link,0.03548562816668884,0.006404066640727478,-0.03487423779929292,0.0005126040609042387,-0.0007567952928515662,9.799977449114458,-4.6155707955343003e-10,5.3304847850316074e-08,-4.989105566004013e-08,0.9999999999999973,0.0;0.0;0.0;0.0;0.0;0.0;0.0;0.0;0.0,0.0015242580557242036;0.0;0.0;0.0;0.0015242580557242036;0.0;0.0;0.0;0.0015242580557242036,8.000000093488779e-07;0.0;0.0;0.0;8.000000093488779e-07;0.0;0.0;0.0;8.000000093488779e-07
109,506000000,109.506,imu_link,0.06665366072250946,0.0481196651848767,0.01865266131847439,0.0002766268104319451,-0.00024773485983964013,9.800903801877906,-4.6155707951500516e-10,5.330484785060135e-08,-4.989105566004089e-08,0.9999999999999973,0.0;0.0;0.0;0.0;0.0;0.0;0.0;0.0;0.0,0.0015242580557242036;0.0;0.0;0.0;0.0015242580557242036;0.0;0.0;0.0;0.0015242580557242036,8.000000093488779e-07;0.0;0.0;0.0;8.000000093488779e-07;0.0;0.0;0.0;8.000000093488779e-07
109,507000000,109.507,imu_link,0.00031320621238800964,-0.03628367566117169,0.07276221979840529,0.0027016445313252937,0.0003190239530211175,9.800550169426044,-4.615570794729039e-10,5.330484785042194e-08,-4.9891055660041306e-08,0.9999999999999973,0.0;0.0;0.0;0.0;0.0;0.0;0.0;0.0;0.0,0.0015242580557242036;0.0;0.0;0.0;0.0015242580557242036;0.0;0.0;0.0;0.0015242580557242036,8.000000093488779e-07;0.0;0.0;0.0;8.000000093488779e-07;0.0;0.0;0.0;8.000000093488779e-07
109,508000000,109.508,imu_link,0.031925947371832714,0.014965208533593021,0.0008460888620997939,0.0009180956828624505,0.000129730924355718,9.798496423143437,-4.6155707939727663e-10,5.3304847850896735e-08,-4.9891055660041683e-08,0.9999999999999973,0.0;0.0;0.0;0.0;0.0;0.0;0.0;0.0;0.0,0.0015242580557242036;0.0;0.0;0.0;0.0015242580557242036;0.0;0.0;0.0;0.0015242580557242036,8.000000093488779e-07;0.0;0.0;0.0;8.000000093488779e-07;0.0;0.0;0.0;8.000000093488779e-07
109,509000000,109.509,imu_link,-0.007106453855105694,-0.03675712771789427,-0.09147183301018656,0.0004941080707450946,-0.0003809005360047861,9.800260383308789,-4.6155707960440224e-10,5.330484785076806e-08,-4.989105566004195e-08,0.9999999999999973,0.0;0.0;0.0;0.0;0.0;0.0;0.0;0.0;0.0,0.0015242580557242036;0.0;0.0;0.0;0.0015242580557242036;0.0;0.0;0.0;0.0015242580557242036,8.000000093488779e-07;0.0;0.0;0.0;8.000000093488779e-07;0.0;0.0;0.0;8.000000093488779e-07
109,510000000,109.51,imu_link,-0.007097274380920883,-0.04353399376014348,-0.022848098470026095,0.0009282934193068288,-0.0006394875256691584,9.801062535675612,-4.6155707956389635e-10,5.3304847850591466e-08,-4.9891055660042147e-08,0.9999999999999973,0.0;0.0;0.0;0.0;0.0;0.0;0.0;0.0;0.0,0.0015242580557242036;0.0;0.0;0.0;0.0015242580557242036;0.0;0.0;0.0;0.0015242580557242036,8.000000093488779e-07;0.0;0.0;0.0;8.000000093488779e-07;0.0;0.0;0.0;8.000000093488779e-07
109,511000000,109.511,imu_link,-0.032396264490391354,-0.03144694353758207,-0.08129365279579724,-0.00040506318600937185,-0.0005161157809991497,9.800981325566978,-4.6155707952212776e-10,5.330484785041617e-08,-4.989105566004277e-08,0.9999999999999973,0.0;0.0;0.0;0.0;0.0;0.0;0.0;0.0;0.0,0.0015242580557242036;0.0;0.0;0.0;0.0015242580557242036;0.0;0.0;0.0;0.0015242580557242036,8.000000093488779e-07;0.0;0.0;0.0;8.000000093488779e-07;0.0;0.0;0.0;8.000000093488779e-07
109,512000000,109.512,imu_link,-0.02954363915517321,-0.0364078029137323,-0.018181305354722482,0.0008551148370186512,0.0007143055393349322,9.800140455371025,-4.6155707944498867e-10,5.3304847850890535e-08,-4.989105566004301e-08,0.9999999999999973,0.0;0.0;0.0;0.0;0.0;0.0;0.0;0.0;0.0,0.0015242580557242036;0.0;0.0;0.0;0.0015242580557242036;0.0;0.0;0.0;0.0015242580557242036,8.000000093488779e-07;0.0;0.0;0.0;8.000000093488779e-07;0.0;0.0;0.0;8.000000093488779e-07
109,513000000,109.513,imu_link,-0.04650586448305566,-0.016941246568836367,0.06159000181337985,0.0004800504233481649,-0.000692739041447789,9.800397490210608,-4.6155707940545383e-10,5.3304847850715027e-08,-4.989105566004323e-08,0.9999999999999973,0.0;0.0;0.0;0.0;0.0;0.0;0.0;0.0;0.0,0.0015242580557242036;0.0;0.0;0.0;0.0015242580557242036;0.0;0.0;0.0;0.0015242580557242036,8.000000093488779e-07;0.0;0.0;0.0;8.000000093488779e-07;0.0;0.0;0.0;8.000000093488779e-07
109,514000000,109.514,imu_link,-0.020411768732896157,-0.028221027143024664,-0.03673643955718727,-0.0001747024464440334,-0.00019387257848483546,9.799715586794896,-4.615570796108361e-10,5.3304847850585053e-08,-4.98910556600436e-08,0.9999999999999973,0.0;0.0;0.0;0.0;0.0;0.0;0.0;0.0;0.0,0.0015242580557242036;0.0;0.0;0.0;0.0015242580557242036;0.0;0.0;0.0;0.0015242580557242036,8.000000093488779e-07;0.0;0.0;0.0;8.000000093488779e-07;0.0;0.0;0.0;8.000000093488779e-07
109,515000000,109.515,imu_link,0.03200169718025421,0.009058064260276577,0.058774122928452945,0.0011344506757383758,-0.0009573883315353077,9.801523028907152,-4.615570795711133e-10,5.330484785040846e-08,-4.989105566004418e-08,0.9999999999999973,0.0;0.0;0.0;0.0;0.0;0.0;0.0;0.0;0.0,0.0015242580557242036;0.0;0.0;0.0;0.0015242580557242036;0.0;0.0;0.0;0.0015242580557242036,8.000000093488779e-07;0.0;0.0;0.0;8.000000093488779e-07;0.0;0.0;0.0;8.000000093488779e-07
109,516000000,109.516,imu_link,0.00020565552720368472,0.08346906751090531,-0.06431251058540888,0.0005088955316065315,0.0020141916648644745,9.800233065852026,-4.6155707949497245e-10,5.330484785088196e-08,-4.989105566004442e-08,0.9999999999999973,0.0;0.0;0.0;0.0;0.0;0.0;0.0;0.0;0.0,0.0015242580557242036;0.0;0.0;0.0;0.0015242580557242036;0.0;0.0;0.0;0.0015242580557242036,8.000000093488779e-07;0.0;0.0;0.0;8.000000093488779e-07;0.0;0.0;0.0;8.000000093488779e-07
109,517000000,109.517,imu_link,-0.001901919150833905,0.03242565698406578,0.006077421100247484,0.0004705336278561274,0.0003834498498731031,9.800072132281668,-4.615570794529318e-10,5.3304847850707106e-08,-4.989105566004467e-08,0.9999999999999973,0.0;0.0;0.0;0.0;0.0;0.0;0.0;0.0;0.0,0.0015242580557242036;0.0;0.0;0.0;0.0015242580557242036;0.0;0.0;0.0;0.0015242580557242036,8.000000093488779e-07;0.0;0.0;0.0;8.000000093488779e-07;0.0;0.0;0.0;8.000000093488779e-07
109,518000000,109.518,imu_link,0.007727493929623981,-0.02804972899997814,-0.04619889507992017,0.0004279515974698618,0.0007805846839611374,9.799347745010339,-4.615570794126536e-10,5.3304847850531386e-08,-4.9891055660045e-08,0.9999999999999973,0.0;0.0;0.0;0.0;0.0;0.0;0.0;0.0;0.0,0.0015242580557242036;0.0;0.0;0.0;0.0015242580557242036;0.0;0.0;0.0;0.0015242580557242036,8.000000093488779e-07;0.0;0.0;0.0;8.000000093488779e-07;0.0;0.0;0.0;8.000000093488779e-07
109,519000000,109.519,imu_link,0.013943717479937272,-0.0331967735189049,-0.009303403184539424,-0.0008923896544204667,-0.0011118289536323192,9.800724685217006,-4.615570793697136e-10,5.330484785035284e-08,-4.989105566004575e-08,0.9999999999999973,0.0;0.0;0.0;0.0;0.0;0.0;0.0;0.0;0.0,0.0015242580557242036;0.0;0.0;0.0;0.0015242580557242036;0.0;0.0;0.0;0.0015242580557242036,8.000000093488779e-07;0.0;0.0;0.0;8.000000093488779e-07;0.0;0.0;0.0;8.000000093488779e-07
109,520000000,109.52,imu_link,0.02817747720798152,0.03252519731191659,-0.003028621854960367,-0.002194359528683812,-0.000962129323808862,9.799217147617249,-4.61557079576805e-10,5.33048478506867e-08,-4.989105566004658e-08,0.9999999999999973,0.0;0.0;0.0;0.0;0.0;0.0;0.0;0.0;0.0,0.0015242580557242036;0.0;0.0;0.0;0.0015242580557242036;0.0;0.0;0.0;0.0015242580557242036,8.000000093488779e-07;0.0;0.0;0.0;8.000000093488779e-07;0.0;0.0;0.0;8.000000093488779e-07
109,521000000,109.521,imu_link,0.04450055474990657,0.024217426588961855,-0.02587674352321618,0.0001644896245477866,-0.0003745769539329536,9.800672673671139,-4.615570795332054e-10,5.33048478505114e-08,-4.989105566004696e-08,0.9999999999999973,0.0;0.0;0.0;0.0;0.0;0.0;0.0;0.0;0.0,0.0015242580557242036;0.0;0.0;0.0;0.0015242580557242036;0.0;0.0;0.0;0.0015242580557242036,8.000000093488779e-07;0.0;0.0;0.0;8.000000093488779e-07;0.0;0.0;0.0;8.000000093488779e-07
109,522000000,109.522,imu_link,-0.024037792394558753,-0.04631973059891933,0.07045971984255282,-0.0006758430804251848,-0.0003985951762573846,9.79959934310075,-4.6155707949288015e-10,5.3304847850335893e-08,-4.989105566004719e-08,0.9999999999999973,0.0;0.0;0.0;0.0;0.0;0.0;0.0;0.0;0.0,0.0015242580557242036;0.0;0.0;0.0;0.0015242580557242036;0.0;0.0;0.0;0.0015242580557242036,8.000000093488779e-07;0.0;0.0;0.0;8.000000093488779e-07;0.0;0.0;0.0;8.000000093488779e-07
109,523000000,109.523,imu_link,-0.008537118760760559,0.030583989037541903,-0.112356562640143,0.0009382341681385507,-0.0012147531205187276,9.80056487517468,-4.615570794186849e-10,5.3304847850811555e-08,-4.989105566004724e-08,0.9999999999999973,0.0;0.0;0.0;0.0;0.0;0.0;0.0;0.0;0.0,0.0015242580557242036;0.0;0.0;0.0;0.0015242580557242036;0.0;0.0;0.0;0.0015242580557242036,8.000000093488779e-07;0.0;0.0;0.0;8.000000093488779e-07;0.0;0.0;0.0;8.000000093488779e-07
109,524000000,109.524,imu_link,0.057298621285243906,-0.019282792581987875,-0.048299555463962876,-0.0005459554206022448,0.0007785655390957678,9.799586917672455,-4.615570793775533e-10,5.330484785063583e-08,-4.989105566004738e-08,0.9999999999999973,0.0;0.0;0.0;0.0;0.0;0.0;0.0;0.0;0.0,0.0015242580557242036;0.0;0.0;0.0;0.0015242580557242036;0.0;0.0;0.0;0.0015242580557242036,8.000000093488779e-07;0.0;0.0;0.0;8.000000093488779e-07;0.0;0.0;0.0;8.000000093488779e-07
109,525000000,109.525,imu_link,0.07328090519444208,-0.001369246129697135,-0.009899632170450498,-0.00044225866867767585,-0.0012185875737751027,9.801780056265597,-4.615570795834114e-10,5.3304847850505856e-08,-4.9891055660048056e-08,0.9999999999999973,0.0;0.0;0.0;0.0;0.0;0.0;0.0;0.0;0.0,0.0015242580557242036;0.0;0.0;0.0;0.0015242580557242036;0.0;0.0;0.0;0.0015242580557242036,8.000000093488779e-07;0.0;0.0;0.0;8.000000093488779e-07;0.0;0.0;0.0;8.000000093488779e-07
109,526000000,109.526,imu_link,0.07089928327457934,-0.012822760158566489,0.009792208371247646,0.0013718708542703876,-0.002584876843338622,9.802041677419417,-4.6155707954480186e-10,5.330484785032927e-08,-4.98910556600484e-08,0.9999999999999973,0.0;0.0;0.0;0.0;0.0;0.0;0.0;0.0;0.0,0.0015242580557242036;0.0;0.0;0.0;0.0015242580557242036;0.0;0.0;0.0;0.0015242580557242036,8.000000093488779e-07;0.0;0.0;0.0;8.000000093488779e-07;0.0;0.0;0.0;8.000000093488779e-07
109,527000000,109.527,imu_link,0.040843712918834554,0.012488132920560656,-0.019785614495523716,-0.00020363933253299095,0.0011229272326909463,9.7990999462579,-4.615570795104501e-10,5.3304847850615844e-08,-4.989105566004915e-08,0.9999999999999973,0.0;0.0;0.0;0.0;0.0;0.0;0.0;0.0;0.0,0.0015242580557242036;0.0;0.0;0.0;0.0015242580557242036;0.0;0.0;0.0;0.0015242580557242036,8.000000093488779e-07;0.0;0.0;0.0;8.000000093488779e-07;0.0;0.0;0.0;8.000000093488779e-07
109,528000000,109.528,imu_link,-0.029855813750974406,-0.008955595427225417,0.024480364494780495,-0.00014069004289174447,-0.0005212842836426057,9.800315834566291,-4.615570794764004e-10,5.330484785043947e-08,-4.989105566004954e-08,0.9999999999999973,0.0;0.0;0.0;0.0;0.0;0.0;0.0;0.0;0.0,0.0015242580557242036;0.0;0.0;0.0;0.0015242580557242036;0.0;0.0;0.0;0.0015242580557242036,8.000000093488779e-07;0.0;0.0;0.0;8.000000093488779e-07;0.0;0.0;0.0;8.000000093488779e-07
109,529000000,109.529,imu_link,-0.009668204139029066,-0.00784774832710956,-0.03153306560416029,-0.0006868231781000702,-0.0014860844317999833,9.79945492251653,-4.6155707943890305e-10,5.330484785026158e-08,-4.989105566004991e-08,0.9999999999999973,0.0;0.0;0.0;0.0;0.0;0.0;0.0;0.0;0.0,0.0015242580557242036;0.0;0.0;0.0;0.0015242580557242036;0.0;0.0;0.0;0.0015242580557242036,8.000000093488779e-07;0.0;0.0;0.0;8.000000093488779e-07;0.0;0.0;0.0;8.000000093488779e-07
109,530000000,109.53,imu_link,0.03383983280285941,0.030235700098988766,0.019674502452039916,0.000590927779359997,-0.0004615728109667744,9.800617713615441,-4.615570793647315e-10,5.3304847850735296e-08,-4.9891055660050524e-08,0.9999999999999973,0.0;0.0;0.0;0.0;0.0;0.0;0.0;0.0;0.0,0.0015242580557242036;0.0;0.0;0.0;0.0015242580557242036;0.0;0.0;0.0;0.0015242580557242036,8.000000093488779e-07;0.0;0.0;0.0;8.000000093488779e-07;0.0;0.0;0.0;8.000000093488779e-07
109,531000000,109.531,imu_link,-0.0010602938378243552,-0.011307833676942347,0.046770528056521946,0.0009887693252013255,-0.001560930404084581,9.802047402701854,-4.6155707956873845e-10,5.330484785060098e-08,-4.989105566005129e-08,0.9999999999999973,0.0;0.0;0.0;0.0;0.0;0.0;0.0;0.0;0.0,0.0015242580557242036;0.0;0.0;0.0;0.0015242580557242036;0.0;0.0;0.0;0.0015242580557242036,8.000000093488779e-07;0.0;0.0;0.0;8.000000093488779e-07;0.0;0.0;0.0;8.000000093488779e-07
109,532000000,109.532,imu_link,0.033514513861052836,-0.012231646957328252,-0.04376118103121326,0.0010235582475484825,-0.0004767814982378717,9.797471223685978,-4.6155707953217025e-10,5.330484785042439e-08,-4.9891055660051835e-08,0.9999999999999973,0.0;0.0;0.0;0.0;0.0;0.0;0.0;0.0;0.0,0.0015242580557242036;0.0;0.0;0.0;0.0015242580557242036;0.0;0.0;0.0;0.0015242580557242036,8.000000093488779e-07;0.0;0.0;0.0;8.000000093488779e-07;0.0;0.0;0.0;8.000000093488779e-07
109,533000000,109.533,imu_link,-0.06619448491916452,0.013312799263989825,-0.01886442440012547,-0.0008217732528638083,0.0003351408634773296,9.801130418375273,-4.6155707948933925e-10,5.330484785024606e-08,-4.9891055660052324e-08,0.9999999999999973,0.0;0.0;0.0;0.0;0.0;0.0;0.0;0.0;0.0,0.0015242580557242036;0.0;0.0;0.0;0.0015242580557242036;0.0;0.0;0.0;0.0015242580557242036,8.000000093488779e-07;0.0;0.0;0.0;8.000000093488779e-07;0.0;0.0;0.0;8.000000093488779e-07
109,534000000,109.534,imu_link,-0.08324213860113866,0.008752374548577345,0.0225897007467951,-0.0011190540063914128,0.0007204180300013465,9.800548640028394,-4.615570794106076e-10,5.330484785071977e-08,-4.98910556600529e-08,0.9999999999999973,0.0;0.0;0.0;0.0;0.0;0.0;0.0;0.0;0.0,0.0015242580557242036;0.0;0.0;0.0;0.0015242580557242036;0.0;0.0;0.0;0.0015242580557242036,8.000000093488779e-07;0.0;0.0;0.0;8.000000093488779e-07;0.0;0.0;0.0;8.000000093488779e-07
109,535000000,109.535,imu_link,0.0744621212426061,0.022330808489067537,-0.04078008802867207,0.00010622328489477891,-0.0008316217836146573,9.800579216041584,-4.6155707937079036e-10,5.3304847850543185e-08,-4.989105566005332e-08,0.9999999999999973,0.0;0.0;0.0;0.0;0.0;0.0;0.0;0.0;0.0,0.0015242580557242036;0.0;0.0;0.0;0.0015242580557242036;0.0;0.0;0.0;0.0015242580557242036,8.000000093488779e-07;0.0;0.0;0.0;8.000000093488779e-07;0.0;0.0;0.0;8.000000093488779e-07
109,536000000,109.536,imu_link,-0.0004839402624885078,0.050122868661157303,-0.060073517396888,-4.563851226990617e-05,-8.572573387775301e-06,9.799287599111151,-4.6155707957098797e-10,5.3304847850410174e-08,-4.989105566005362e-08,0.9999999999999973,0.0;0.0;0.0;0.0;0.0;0.0;0.0;0.0;0.0,0.0015242580557242036;0.0;0.0;0.0;0.0015242580557242036;0.0;0.0;0.0;0.0015242580557242036,8.000000093488779e-07;0.0;0.0;0.0;8.000000093488779e-07;0.0;0.0;0.0;8.000000093488779e-07
109,537000000,109.537,imu_link,0.009008793123615395,0.0032083891732827153,0.09621060511234303,0.00037224009229562674,-0.0002831159637243959,9.801804351024726,-4.615570795287478e-10,5.330484785069372e-08,-4.989105566005407e-08,0.9999999999999973,0.0;0.0;0.0;0.0;0.0;0.0;0.0;0.0;0.0,0.0015242580557242036;0.0;0.0;0.0;0.0015242580557242036;0.0;0.0;0.0;0.0015242580557242036,8.000000093488779e-07;0.0;0.0;0.0;8.000000093488779e-07;0.0;0.0;0.0;8.000000093488779e-07
109,538000000,109.538,imu_link,-0.02062374903274785,0.03125456481477713,-0.1130298417431553,-0.0005460154115797663,-0.0003806742407061436,9.80125379678007,-4.61557079489906e-10,5.330484785051756e-08,-4.9891055660054276e-08,0.9999999999999973,0.0;0.0;0.0;0.0;0.0;0.0;0.0;0.0;0.0,0.0015242580557242036;0.0;0.0;0.0;0.0015242580557242036;0.0;0.0;0.0;0.0015242580557242036,8.000000093488779e-07;0.0;0.0;0.0;8.000000093488779e-07;0.0;0.0;0.0;8.000000093488779e-07
109,539000000,109.539,imu_link,-0.051938704968960865,0.03269966807199204,0.04306139427990961,0.00010624289572293966,-0.00014160115548488057,9.800690303193075,-4.6155707944542645e-10,5.3304847850340976e-08,-4.989105566005487e-08,0.9999999999999973,0.0;0.0;0.0;0.0;0.0;0.0;0.0;0.0;0.0,0.0015242580557242036;0.0;0.0;0.0;0.0015242580557242036;0.0;0.0;0.0;0.0015242580557242036,8.000000093488779e-07;0.0;0.0;0.0;8.000000093488779e-07;0.0;0.0;0.0;8.000000093488779e-07
109,540000000,109.54,imu_link,0.004613198936134042,0.0478613598855731,-0.0556717225930695,0.00013497213593681058,0.0013037421849697902,9.799718418926197,-4.6155707936786416e-10,5.330484785081078e-08,-4.989105566005534e-08,0.9999999999999973,0.0;0.0;0.0;0.0;0.0;0.0;0.0;0.0;0.0,0.0015242580557242036;0.0;0.0;0.0;0.0015242580557242036;0.0;0.0;0.0;0.0015242580557242036,8.000000093488779e-07;0.0;0.0;0.0;8.000000093488779e-07;0.0;0.0;0.0;8.000000093488779e-07
109,541000000,109.541,imu_link,0.03973925096625271,-0.014286566042377198,0.04685696518026033,-0.0016016381088612979,-0.000407969872570729,9.80035783447121,-4.615570795744774e-10,5.330484785067972e-08,-4.989105566005578e-08,0.9999999999999973,0.0;0.0;0.0;0.0;0.0;0.0;0.0;0.0;0.0,0.0015242580557242036;0.0;0.0;0.0;0.0015242580557242036;0.0;0.0;0.0;0.0015242580557242036,8.000000093488779e-07;0.0;0.0;0.0;8.000000093488779e-07;0.0;0.0;0.0;8.000000093488779e-07
109,542000000,109.542,imu_link,0.03346847159282365,0.04235459040761059,0.022812048752908546,0.001402664766811575,9.697055790130403e-05,9.80066198149334,-4.6155707953590037e-10,5.330484785050226e-08,-4.989105566005608e-08,0.9999999999999973,0.0;0.0;0.0;0.0;0.0;0.0;0.0;0.0;0.0,0.0015242580557242036;0.0;0.0;0.0;0.0015242580557242036;0.0;0.0;0.0;0.0015242580557242036,8.000000093488779e-07;0.0;0.0;0.0;8.000000093488779e-07;0.0;0.0;0.0;8.000000093488779e-07
109,543000000,109.543,imu_link,-0.049700006192653946,-0.02043065685167526,-0.004640089371293496,0.0006890757344633705,-0.0016163095341186057,9.800378323238014,-4.615570794933316e-10,5.330484785032307e-08,-4.989105566005679e-08,0.9999999999999973,0.0;0.0;0.0;0.0;0.0;0.0;0.0;0.0;0.0,0.0015242580557242036;0.0;0.0;0.0;0.0015242580557242036;0.0;0.0;0.0;0.0015242580557242036,8.000000093488779e-07;0.0;0.0;0.0;8.000000093488779e-07;0.0;0.0;0.0;8.000000093488779e-07
109,544000000,109.544,imu_link,0.021721131251893094,-0.02134944549316388,0.031044803926240948,-0.0008555407109962948,-0.0006718649863977138,9.799694835400365,-4.615570794162446e-10,5.3304847850795045e-08,-4.9891055660057373e-08,0.9999999999999973,0.0;0.0;0.0;0.0;0.0;0.0;0.0;0.0;0.0,0.0015242580557242036;0.0;0.0;0.0;0.0015242580557242036;0.0;0.0;0.0;0.0015242580557242036,8.000000093488779e-07;0.0;0.0;0.0;8.000000093488779e-07;0.0;0.0;0.0;8.000000093488779e-07
109,545000000,109.545,imu_link,-0.023739444796172834,-0.047375665187654556,0.06217469650427346,0.0019448056116777692,-0.0008747486477922459,9.800831575397932,-4.6155707937323835e-10,5.3304847850619755e-08,-4.989105566005753e-08,0.9999999999999973,0.0;0.0;0.0;0.0;0.0;0.0;0.0;0.0;0.0,0.0015242580557242036;0.0;0.0;0.0;0.0015242580557242036;0.0;0.0;0.0;0.0015242580557242036,8.000000093488779e-07;0.0;0.0;0.0;8.000000093488779e-07;0.0;0.0;0.0;8.000000093488779e-07
109,546000000,109.546,imu_link,-0.024494780164804355,-0.030324222844799954,-0.025513951577364743,9.253729336879953e-06,0.001022623227281256,9.798636270729823,-4.6155707957816035e-10,5.330484785048848e-08,-4.989105566005863e-08,0.9999999999999973,0.0;0.0;0.0;0.0;0.0;0.0;0.0;0.0;0.0,0.0015242580557242036;0.0;0.0;0.0;0.0015242580557242036;0.0;0.0;0.0;0.0015242580557242036,8.000000093488779e-07;0.0;0.0;0.0;8.000000093488779e-07;0.0;0.0;0.0;8.000000093488779e-07
109,547000000,109.547,imu_link,0.039868758177184264,-0.08278365291244924,0.005413368925703483,2.0348819656055433e-06,0.001214787998052256,9.799539550277206,-4.6155707954271065e-10,5.3304847850312315e-08,-4.9891055660058684e-08,0.9999999999999973,0.0;0.0;0.0;0.0;0.0;0.0;0.0;0.0;0.0,0.0015242580557242036;0.0;0.0;0.0;0.0015242580557242036;0.0;0.0;0.0;0.0015242580557242036,8.000000093488779e-07;0.0;0.0;0.0;8.000000093488779e-07;0.0;0.0;0.0;8.000000093488779e-07
109,548000000,109.548,imu_link,0.033394120826563775,-0.03764689260292463,0.006000691987234432,-0.0006058452080471109,-0.001402311105816514,9.801834409197783,-4.6155707950427363e-10,5.330484785059673e-08,-4.9891055660059034e-08,0.9999999999999973,0.0;0.0;0.0;0.0;0.0;0.0;0.0;0.0;0.0,0.0015242580557242036;0.0;0.0;0.0;0.0015242580557242036;0.0;0.0;0.0;0.0015242580557242036,8.000000093488779e-07;0.0;0.0;0.0;8.000000093488779e-07;0.0;0.0;0.0;8.000000093488779e-07
109,549000000,109.549,imu_link,-0.03392280543338336,0.06058315303487782,0.000832757746478181,0.00026668124845764015,-0.0023848831146499327,9.798902312408636,-4.6155707946602005e-10,5.330484785042036e-08,-4.9891055660059445e-08,0.9999999999999973,0.0;0.0;0.0;0.0;0.0;0.0;0.0;0.0;0.0,0.0015242580557242036;0.0;0.0;0.0;0.0015242580557242036;0.0;0.0;0.0;0.0015242580557242036,8.000000093488779e-07;0.0;0.0;0.0;8.000000093488779e-07;0.0;0.0;0.0;8.000000093488779e-07
109,550000000,109.55,imu_link,0.01638923140617976,-6.966884420438179e-06,0.022214705616563305,-0.00018598298971206662,-0.0003083497297749377,9.800638564607306,-4.6155707938779435e-10,5.330484785089472e-08,-4.989105566005995e-08,0.9999999999999973,0.0;0.0;0.0;0.0;0.0;0.0;0.0;0.0;0.0,0.0015242580557242036;0.0;0.0;0.0;0.0015242580557242036;0.0;0.0;0.0;0.0015242580557242036,8.000000093488779e-07;0.0;0.0;0.0;8.000000093488779e-07;0.0;0.0;0.0;8.000000093488779e-07
109,551000000,109.551,imu_link,0.027194682958760933,0.029277794022956955,0.08062016568183436,0.0014203553536957804,0.0005862784670491881,9.801051083169568,-4.6155707958984004e-10,5.3304847850763447e-08,-4.9891055660060206e-08,0.9999999999999973,0.0;0.0;0.0;0.0;0.0;0.0;0.0;0.0;0.0,0.0015242580557242036;0.0;0.0;0.0;0.0015242580557242036;0.0;0.0;0.0;0.0015242580557242036,8.000000093488779e-07;0.0;0.0;0.0;8.000000093488779e-07;0.0;0.0;0.0;8.000000093488779e-07
109,552000000,109.552,imu_link,-0.0010274395467547081,-0.01896095551067556,-0.01686276686395612,0.0009468605241498113,0.001359029298712323,9.79859043578722,-4.61557079548967e-10,5.3304847850586635e-08,-4.989105566006073e-08,0.9999999999999973,0.0;0.0;0.0;0.0;0.0;0.0;0.0;0.0;0.0,0.0015242580557242036;0.0;0.0;0.0;0.0015242580557242036;0.0;0.0;0.0;0.0015242580557242036,8.000000093488779e-07;0.0;0.0;0.0;8.000000093488779e-07;0.0;0.0;0.0;8.000000093488779e-07
109,553000000,109.553,imu_link,0.04294444879619051,-0.044583152843609926,-0.012163973811986759,0.0010083621092180572,-0.0003436339289514253,9.800595465456379,-4.61557079507221e-10,5.330484785041069e-08,-4.9891055660061205e-08,0.9999999999999973,0.0;0.0;0.0;0.0;0.0;0.0;0.0;0.0;0.0,0.0015242580557242036;0.0;0.0;0.0;0.0015242580557242036;0.0;0.0;0.0;0.0015242580557242036,8.000000093488779e-07;0.0;0.0;0.0;8.000000093488779e-07;0.0;0.0;0.0;8.000000093488779e-07
109,554000000,109.554,imu_link,0.06348265119293464,0.10145437701467716,-0.046133284550380384,0.0006459951684969897,0.00033777633535876265,9.798788578102203,-4.6155707942923744e-10,5.3304847850882666e-08,-4.9891055660061774e-08,0.9999999999999973,0.0;0.0;0.0;0.0;0.0;0.0;0.0;0.0;0.0,0.0015242580557242036;0.0;0.0;0.0;0.0015242580557242036;0.0;0.0;0.0;0.0015242580557242036,8.000000093488779e-07;0.0;0.0;0.0;8.000000093488779e-07;0.0;0.0;0.0;8.000000093488779e-07
109,555000000,109.555,imu_link,-0.011030389911923793,-0.01417800599821054,-0.00027988972373732426,0.0009606937909777206,0.0009535644945044398,9.79961166900888,-4.615570793907445e-10,5.3304847850705855e-08,-4.989105566006197e-08,0.9999999999999973,0.0;0.0;0.0;0.0;0.0;0.0;0.0;0.0;0.0,0.0015242580557242036;0.0;0.0;0.0;0.0015242580557242036;0.0;0.0;0.0;0.0015242580557242036,8.000000093488779e-07;0.0;0.0;0.0;8.000000093488779e-07;0.0;0.0;0.0;8.000000093488779e-07
109,556000000,109.556,imu_link,-0.05946881579102774,-0.0399690092641723,0.00010129769756241116,0.0003827169530691357,-0.0002581174453372626,9.799301385486139,-4.615570795968963e-10,5.3304847850575015e-08,-4.9891055660062283e-08,0.9999999999999973,0.0;0.0;0.0;0.0;0.0;0.0;0.0;0.0;0.0,0.0015242580557242036;0.0;0.0;0.0;0.0015242580557242036;0.0;0.0;0.0;0.0015242580557242036,8.000000093488779e-07;0.0;0.0;0.0;8.000000093488779e-07;0.0;0.0;0.0;8.000000093488779e-07
109,557000000,109.557,imu_link,0.07908557334486636,-0.04347474507214074,0.07914765647059821,0.0018729816467154964,-0.0010416905126481222,9.799296987658655,-4.615570795552241e-10,5.33048478503982e-08,-4.989105566006275e-08,0.9999999999999973,0.0;0.0;0.0;0.0;0.0;0.0;0.0;0.0;0.0,0.0015242580557242036;0.0;0.0;0.0;0.0015242580557242036;0.0;0.0;0.0;0.0015242580557242036,8.000000093488779e-07;0.0;0.0;0.0;8.000000093488779e-07;0.0;0.0;0.0;8.000000093488779e-07
109,558000000,109.558,imu_link,-0.011544339060727906,-0.0006908090106661655,-0.003881746376947405,6.859019830998414e-05,0.0013351119760098356,9.799188166943962,-4.615570795130811e-10,5.330484785068305e-08,-4.9891055660063296e-08,0.9999999999999973,0.0;0.0;0.0;0.0;0.0;0.0;0.0;0.0;0.0,0.0015242580557242036;0.0;0.0;0.0;0.0015242580557242036;0.0;0.0;0.0;0.0015242580557242036,8.000000093488779e-07;0.0;0.0;0.0;8.000000093488779e-07;0.0;0.0;0.0;8.000000093488779e-07
109,559000000,109.559,imu_link,-0.010998241462643617,0.016552108855014704,-0.12057493046277167,0.0003636952053301208,-0.00022882974366178515,9.79893627769552,-4.615570794750227e-10,5.330484785050884e-08,-4.9891055660063494e-08,0.9999999999999973,0.0;0.0;0.0;0.0;0.0;0.0;0.0;0.0;0.0,0.0015242580557242036;0.0;0.0;0.0;0.0015242580557242036;0.0;0.0;0.0;0.0015242580557242036,8.000000093488779e-07;0.0;0.0;0.0;8.000000093488779e-07;0.0;0.0;0.0;8.000000093488779e-07
109,560000000,109.56,imu_link,-0.045096786294829445,0.024548610038138893,-0.0022815449197930663,-0.0002918429704653384,-0.0007962583497033332,9.79872339118908,-4.615570794320351e-10,5.330484785033203e-08,-4.989105566006378e-08,0.9999999999999973,0.0;0.0;0.0;0.0;0.0;0.0;0.0;0.0;0.0,0.0015242580557242036;0.0;0.0;0.0;0.0015242580557242036;0.0;0.0;0.0;0.0015242580557242036,8.000000093488779e-07;0.0;0.0;0.0;8.000000093488779e-07;0.0;0.0;0.0;8.000000093488779e-07
109,561000000,109.561,imu_link,0.04887921033959278,-0.014126849907353176,0.06733620539787946,-0.00020623381131670436,0.000864093774676754,9.799673441598486,-4.615570793601745e-10,5.330484785080705e-08,-4.989105566006425e-08,0.9999999999999973,0.0;0.0;0.0;0.0;0.0;0.0;0.0;0.0;0.0,0.0015242580557242036;0.0;0.0;0.0;0.0015242580557242036;0.0;0.0;0.0;0.0015242580557242036,8.000000093488779e-07;0.0;0.0;0.0;8.000000093488779e-07;0.0;0.0;0.0;8.000000093488779e-07
109,562000000,109.562,imu_link,-0.046040551752066124,-0.020037163453233756,0.008027332806589238,0.0019166374654519714,-0.0003256923604592767,9.798749482105102,-4.615570795647422e-10,5.3304847850676434e-08,-4.9891055660064514e-08,0.9999999999999973,0.0;0.0;0.0;0.0;0.0;0.0;0.0;0.0;0.0,0.0015242580557242036;0.0;0.0;0.0;0.0015242580557242036;0.0;0.0;0.0;0.0015242580557242036,8.000000093488779e-07;0.0;0.0;0.0;8.000000093488779e-07;0.0;0.0;0.0;8.000000093488779e-07
109,563000000,109.563,imu_link,-0.029675551052385438,-0.054510423119184706,0.014008991135670104,-0.0005438045843074332,0.0007555515175340459,9.799930967395051,-4.615570795268258e-10,5.3304847850499404e-08,-4.989105566006487e-08,0.9999999999999973,0.0;0.0;0.0;0.0;0.0;0.0;0.0;0.0;0.0,0.0015242580557242036;0.0;0.0;0.0;0.0015242580557242036;0.0;0.0;0.0;0.0015242580557242036,8.000000093488779e-07;0.0;0.0;0.0;8.000000093488779e-07;0.0;0.0;0.0;8.000000093488779e-07
109,564000000,109.564,imu_link,0.019063632840456514,0.009507719365298463,-0.010704661959504242,-0.0013766111921623423,-0.000769039919958853,9.801298345364343,-4.6155707948469577e-10,5.330484785032042e-08,-4.9891055660065725e-08,0.9999999999999973,0.0;0.0;0.0;0.0;0.0;0.0;0.0;0.0;0.0,0.0015242580557242036;0.0;0.0;0.0;0.0015242580557242036;0.0;0.0;0.0;0.0015242580557242036,8.000000093488779e-07;0.0;0.0;0.0;8.000000093488779e-07;0.0;0.0;0.0;8.000000093488779e-07
109,565000000,109.565,imu_link,-0.0526712239822103,-0.03469354127358572,0.051745850708595796,0.0007592984972146238,-0.0008682540162723978,9.800498102956041,-4.6155707941210726e-10,5.3304847850793265e-08,-4.9891055660066214e-08,0.9999999999999973,0.0;0.0;0.0;0.0;0.0;0.0;0.0;0.0;0.0,0.0015242580557242036;0.0;0.0;0.0;0.0015242580557242036;0.0;0.0;0.0;0.0015242580557242036,8.000000093488779e-07;0.0;0.0;0.0;8.000000093488779e-07;0.0;0.0;0.0;8.000000093488779e-07
109,566000000,109.566,imu_link,0.025047062681054794,0.012883910974978829,0.00407807372239499,-0.00094166146201341,-0.001480785454167,9.79895090757861,-4.615570793729072e-10,5.330484785061776e-08,-4.989105566006632e-08,0.9999999999999973,0.0;0.0;0.0;0.0;0.0;0.0;0.0;0.0;0.0,0.0015242580557242036;0.0;0.0;0.0;0.0015242580557242036;0.0;0.0;0.0;0.0015242580557242036,8.000000093488779e-07;0.0;0.0;0.0;8.000000093488779e-07;0.0;0.0;0.0;8.000000093488779e-07
109,567000000,109.567,imu_link,-0.029514921831558412,0.008742841291211367,0.005092246963538302,0.0006526748102469829,-0.0006823368135726632,9.798752716996553,-4.615570795740772e-10,5.3304847850487135e-08,-4.989105566006699e-08,0.9999999999999973,0.0;0.0;0.0;0.0;0.0;0.0;0.0;0.0;0.0,0.0015242580557242036;0.0;0.0;0.0;0.0015242580557242036;0.0;0.0;0.0;0.0015242580557242036,8.000000093488779e-07;0.0;0.0;0.0;8.000000093488779e-07;0.0;0.0;0.0;8.000000093488779e-07
109,568000000,109.568,imu_link,0.04726765713110506,-0.014323072998751529,0.03703673756445406,0.00031720434019920336,-0.00028429747012183597,9.800067973057983,-4.6155707953371594e-10,5.330484785030989e-08,-4.989105566006773e-08,0.9999999999999973,0.0;0.0;0.0;0.0;0.0;0.0;0.0;0.0;0.0,0.0015242580557242036;0.0;0.0;0.0;0.0015242580557242036;0.0;0.0;0.0;0.0015242580557242036,8.000000093488779e-07;0.0;0.0;0.0;8.000000093488779e-07;0.0;0.0;0.0;8.000000093488779e-07
109,569000000,109.569,imu_link,0.04551641644575612,0.035305598978642924,0.00876835990496901,-0.0010199697427823243,-0.0015409482360867828,9.799604596611385,-4.6155707949332347e-10,5.3304847850596244e-08,-4.9891055660068094e-08,0.9999999999999973,0.0;0.0;0.0;0.0;0.0;0.0;0.0;0.0;0.0,0.0015242580557242036;0.0;0.0;0.0;0.0015242580557242036;0.0;0.0;0.0;0.0015242580557242036,8.000000093488779e-07;0.0;0.0;0.0;8.000000093488779e-07;0.0;0.0;0.0;8.000000093488779e-07
109,570000000,109.57,imu_link,-0.013745008391686749,0.04448050830167666,0.026060298571693525,8.458563662944198e-05,-0.0004242655622500509,9.801254699925856,-4.615570794538631e-10,5.3304847850419214e-08,-4.989105566006828e-08,0.9999999999999973,0.0;0.0;0.0;0.0;0.0;0.0;0.0;0.0;0.0,0.0015242580557242036;0.0;0.0;0.0;0.0015242580557242036;0.0;0.0;0.0;0.0015242580557242036,8.000000093488779e-07;0.0;0.0;0.0;8.000000093488779e-07;0.0;0.0;0.0;8.000000093488779e-07
109,571000000,109.571,imu_link,0.09618661574198732,0.016517345184293396,0.03010117591087255,6.440608094905405e-05,-0.0003573913753012728,9.799938451316764,-4.6155707937797375e-10,5.330484785089271e-08,-4.989105566006878e-08,0.9999999999999973,0.0;0.0;0.0;0.0;0.0;0.0;0.0;0.0;0.0,0.0015242580557242036;0.0;0.0;0.0;0.0015242580557242036;0.0;0.0;0.0;0.0015242580557242036,8.000000093488779e-07;0.0;0.0;0.0;8.000000093488779e-07;0.0;0.0;0.0;8.000000093488779e-07
109,572000000,109.572,imu_link,0.0032380336715035966,-0.018855710623602893,-0.006688410674458387,-0.0005654843192800979,-0.0003512738511098725,9.800841383221208,-4.615570795819724e-10,5.3304847850763394e-08,-4.989105566006927e-08,0.9999999999999973,0.0;0.0;0.0;0.0;0.0;0.0;0.0;0.0;0.0,0.0015242580557242036;0.0;0.0;0.0;0.0015242580557242036;0.0;0.0;0.0;0.0015242580557242036,8.000000093488779e-07;0.0;0.0;0.0;8.000000093488779e-07;0.0;0.0;0.0;8.000000093488779e-07
109,573000000,109.573,imu_link,-0.06681804491394228,0.038632620275989286,0.07419777581792195,0.0006466200324486767,-0.0002133808780261944,9.800095257886765,-4.6155707954138245e-10,5.3304847850586364e-08,-4.9891055660069536e-08,0.9999999999999973,0.0;0.0;0.0;0.0;0.0;0.0;0.0;0.0;0.0,0.0015242580557242036;0.0;0.0;0.0;0.0015242580557242036;0.0;0.0;0.0;0.0015242580557242036,8.000000093488779e-07;0.0;0.0;0.0;8.000000093488779e-07;0.0;0.0;0.0;8.000000093488779e-07
109,574000000,109.574,imu_link,0.03779077500443609,-0.0398096602953634,-0.04834368306207431,0.0029098496010989,0.0009339728138189655,9.80025560596224,-4.615570795002776e-10,5.3304847850408043e-08,-4.989105566007023e-08,0.9999999999999973,0.0;0.0;0.0;0.0;0.0;0.0;0.0;0.0;0.0,0.0015242580557242036;0.0;0.0;0.0;0.0015242580557242036;0.0;0.0;0.0;0.0015242580557242036,8.000000093488779e-07;0.0;0.0;0.0;8.000000093488779e-07;0.0;0.0;0.0;8.000000093488779e-07
109,575000000,109.575,imu_link,0.0031522803702386027,0.04915200482855579,0.05062772022802437,-0.0007514355460971171,-0.0015887808691995603,9.800129684243963,-4.615570794211138e-10,5.3304847850883705e-08,-4.989105566007057e-08,0.9999999999999973,0.0;0.0;0.0;0.0;0.0;0.0;0.0;0.0;0.0,0.0015242580557242036;0.0;0.0;0.0;0.0015242580557242036;0.0;0.0;0.0;0.0015242580557242036,8.000000093488779e-07;0.0;0.0;0.0;8.000000093488779e-07;0.0;0.0;0.0;8.000000093488779e-07
109,576000000,109.576,imu_link,-0.0010073341662601603,-0.04780265565580758,-0.040482422170229904,-0.0015961961223683358,-0.0013704119467505904,9.799681343977781,-4.6155707938162777e-10,5.3304847850708634e-08,-4.9891055660070906e-08,0.9999999999999973,0.0;0.0;0.0;0.0;0.0;0.0;0.0;0.0;0.0,0.0015242580557242036;0.0;0.0;0.0;0.0015242580557242036;0.0;0.0;0.0;0.0015242580557242036,8.000000093488779e-07;0.0;0.0;0.0;8.000000093488779e-07;0.0;0.0;0.0;8.000000093488779e-07
109,577000000,109.577,imu_link,0.04570761473559259,-0.011330086663262042,-0.0728152054676796,-0.00012235160338902262,-0.0004290155939162734,9.799361815816196,-4.6155707958616234e-10,5.330484785058104e-08,-4.9891055660071455e-08,0.9999999999999973,0.0;0.0;0.0;0.0;0.0;0.0;0.0;0.0;0.0,0.0015242580557242036;0.0;0.0;0.0;0.0015242580557242036;0.0;0.0;0.0;0.0015242580557242036,8.000000093488779e-07;0.0;0.0;0.0;8.000000093488779e-07;0.0;0.0;0.0;8.000000093488779e-07
109,578000000,109.578,imu_link,-0.01749723353607101,-0.011390949034246851,0.021043616611995695,-0.0011607535223704503,-0.0009650533679526553,9.80013783555849,-4.615570795477853e-10,5.330484785040488e-08,-4.989105566007205e-08,0.9999999999999973,0.0;0.0;0.0;0.0;0.0;0.0;0.0;0.0;0.0,0.0015242580557242036;0.0;0.0;0.0;0.0015242580557242036;0.0;0.0;0.0;0.0015242580557242036,8.000000093488779e-07;0.0;0.0;0.0;8.000000093488779e-07;0.0;0.0;0.0;8.000000093488779e-07
109,579000000,109.579,imu_link,0.062246119011618785,-0.011160452720906381,-0.010426970735804134,0.0003566159424714953,0.001714760799361081,9.800801326770976,-4.615570795074085e-10,5.330484785069255e-08,-4.989105566007272e-08,0.9999999999999973,0.0;0.0;0.0;0.0;0.0;0.0;0.0;0.0;0.0,0.0015242580557242036;0.0;0.0;0.0;0.0015242580557242036;0.0;0.0;0.0;0.0015242580557242036,8.000000093488779e-07;0.0;0.0;0.0;8.000000093488779e-07;0.0;0.0;0.0;8.000000093488779e-07
109,580000000,109.58,imu_link,0.022302132295879785,0.07483576967833154,-0.008892484579840083,3.740083261598841e-05,0.0014674132977168886,9.799283069908384,-4.6155707946861486e-10,5.330484785051509e-08,-4.989105566007286e-08,0.9999999999999973,0.0;0.0;0.0;0.0;0.0;0.0;0.0;0.0;0.0,0.0015242580557242036;0.0;0.0;0.0;0.0015242580557242036;0.0;0.0;0.0;0.0015242580557242036,8.000000093488779e-07;0.0;0.0;0.0;8.000000093488779e-07;0.0;0.0;0.0;8.000000093488779e-07
109,581000000,109.581,imu_link,-0.034529585050353244,0.05484574536342093,0.07114996572124738,-4.607293450987652e-05,-0.0005312439619629928,9.800639222222106,-4.6155707942621963e-10,5.330484785033914e-08,-4.989105566007343e-08,0.9999999999999973,0.0;0.0;0.0;0.0;0.0;0.0;0.0;0.0;0.0,0.0015242580557242036;0.0;0.0;0.0;0.0015242580557242036;0.0;0.0;0.0;0.0015242580557242036,8.000000093488779e-07;0.0;0.0;0.0;8.000000093488779e-07;0.0;0.0;0.0;8.000000093488779e-07
109,582000000,109.582,imu_link,0.020502693421910807,0.0033950866165829464,-0.04481766148358045,-0.0005589614720266857,-0.00029359555409373954,9.799280147524732,-4.615570793537674e-10,5.330484785081329e-08,-4.989105566007393e-08,0.9999999999999973,0.0;0.0;0.0;0.0;0.0;0.0;0.0;0.0;0.0,0.0015242580557242036;0.0;0.0;0.0;0.0015242580557242036;0.0;0.0;0.0;0.0015242580557242036,8.000000093488779e-07;0.0;0.0;0.0;8.000000093488779e-07;0.0;0.0;0.0;8.000000093488779e-07
109,583000000,109.583,imu_link,0.00284623242713897,-0.06844196288968067,0.05641336109240556,0.0008451974932527624,-0.0001742790031377077,9.799299274808105,-4.6155707955880593e-10,5.3304847850682674e-08,-4.9891055660074407e-08,0.9999999999999973,0.0;0.0;0.0;0.0;0.0;0.0;0.0;0.0;0.0,0.0015242580557242036;0.0;0.0;0.0;0.0015242580557242036;0.0;0.0;0.0;0.0015242580557242036,8.000000093488779e-07;0.0;0.0;0.0;8.000000093488779e-07;0.0;0.0;0.0;8.000000093488779e-07
109,584000000,109.584,imu_link,0.020257305123737166,-0.014180470567994501,0.019807463152656243,-0.0012311337280756709,-0.0013839913052992826,9.800829481263598,-4.6155707951918367e-10,5.330484785050283e-08,-4.989105566007474e-08,0.9999999999999973,0.0;0.0;0.0;0.0;0.0;0.0;0.0;0.0;0.0,0.0015242580557242036;0.0;0.0;0.0;0.0015242580557242036;0.0;0.0;0.0;0.0015242580557242036,8.000000093488779e-07;0.0;0.0;0.0;8.000000093488779e-07;0.0;0.0;0.0;8.000000093488779e-07
109,585000000,109.585,imu_link,0.007244664460005324,0.018307227222339715,-0.0400750597638224,-0.0005607345661057671,0.0003849327874033868,9.799623090752647,-4.6155707947869793e-10,5.3304847850323856e-08,-4.989105566007528e-08,0.9999999999999973,0.0;0.0;0.0;0.0;0.0;0.0;0.0;0.0;0.0,0.0015242580557242036;0.0;0.0;0.0;0.0015242580557242036;0.0;0.0;0.0;0.0015242580557242036,8.000000093488779e-07;0.0;0.0;0.0;8.000000093488779e-07;0.0;0.0;0.0;8.000000093488779e-07
109,586000000,109.586,imu_link,0.009871945685319114,0.006325493588882721,0.013165376747125925,-0.0005014334193387264,-0.00029535742376394526,9.799813088643047,-4.615570794055967e-10,5.330484785079779e-08,-4.989105566007576e-08,0.9999999999999973,0.0;0.0;0.0;0.0;0.0;0.0;0.0;0.0;0.0,0.0015242580557242036;0.0;0.0;0.0;0.0015242580557242036;0.0;0.0;0.0;0.0015242580557242036,8.000000093488779e-07;0.0;0.0;0.0;8.000000093488779e-07;0.0;0.0;0.0;8.000000093488779e-07
109,587000000,109.587,imu_link,0.021939924258026836,0.035603771934835084,0.01187366359389544,-0.0006615654266283293,0.0007813108370299616,9.800110326264344,-4.6155707961103933e-10,5.330484785066695e-08,-4.9891055660076e-08,0.9999999999999973,0.0;0.0;0.0;0.0;0.0;0.0;0.0;0.0;0.0,0.0015242580557242036;0.0;0.0;0.0;0.0015242580557242036;0.0;0.0;0.0;0.0015242580557242036,8.000000093488779e-07;0.0;0.0;0.0;8.000000093488779e-07;0.0;0.0;0.0;8.000000093488779e-07
109,588000000,109.588,imu_link,-0.026733681918070993,0.04281907171894609,0.00377533977020231,0.0009507488751164973,-0.0005209059413424251,9.799870576943098,-4.615570795719573e-10,5.3304847850488836e-08,-4.989105566007644e-08,0.9999999999999973,0.0;0.0;0.0;0.0;0.0;0.0;0.0;0.0;0.0,0.0015242580557242036;0.0;0.0;0.0;0.0015242580557242036;0.0;0.0;0.0;0.0015242580557242036,8.000000093488779e-07;0.0;0.0;0.0;8.000000093488779e-07;0.0;0.0;0.0;8.000000093488779e-07
109,589000000,109.589,imu_link,-0.010686575037590686,-0.038566443696831404,0.09036716891330691,0.0006440446102521884,0.00043595210393441037,9.800311417483226,-4.6155707953332716e-10,5.330484785031138e-08,-4.9891055660076934e-08,0.9999999999999973,0.0;0.0;0.0;0.0;0.0;0.0;0.0;0.0;0.0,0.0015242580557242036;0.0;0.0;0.0;0.0015242580557242036;0.0;0.0;0.0;0.0015242580557242036,8.000000093488779e-07;0.0;0.0;0.0;8.000000093488779e-07;0.0;0.0;0.0;8.000000093488779e-07
109,590000000,109.59,imu_link,0.003554669279704789,0.03969309726362964,0.010537549964906665,0.0010499883991150548,-0.00023426758754283575,9.799584828487667,-4.615570794962088e-10,5.3304847850595145e-08,-4.9891055660077636e-08,0.9999999999999973,0.0;0.0;0.0;0.0;0.0;0.0;0.0;0.0;0.0,0.0015242580557242036;0.0;0.0;0.0;0.0015242580557242036;0.0;0.0;0.0;0.0015242580557242036,8.000000093488779e-07;0.0;0.0;0.0;8.000000093488779e-07;0.0;0.0;0.0;8.000000093488779e-07
109,591000000,109.591,imu_link,0.008105246707604631,0.09119786318749469,-0.07203873403214739,0.0006271220287362831,-0.00022857169313191816,9.799673449099425,-4.6155707946092285e-10,5.330484785041964e-08,-4.989105566007774e-08,0.9999999999999973,0.0;0.0;0.0;0.0;0.0;0.0;0.0;0.0;0.0,0.0015242580557242036;0.0;0.0;0.0;0.0015242580557242036;0.0;0.0;0.0;0.0015242580557242036,8.000000093488779e-07;0.0;0.0;0.0;8.000000093488779e-07;0.0;0.0;0.0;8.000000093488779e-07
109,592000000,109.592,imu_link,0.05348136765377504,-0.037802654770168836,-0.048035741316673396,0.00011398784241476774,-0.002145706320684972,9.799863380315713,-4.6155707938460795e-10,5.330484785089422e-08,-4.9891055660078404e-08,0.9999999999999973,0.0;0.0;0.0;0.0;0.0;0.0;0.0;0.0;0.0,0.0015242580557242036;0.0;0.0;0.0;0.0015242580557242036;0.0;0.0;0.0;0.0015242580557242036,8.000000093488779e-07;0.0;0.0;0.0;8.000000093488779e-07;0.0;0.0;0.0;8.000000093488779e-07
109,593000000,109.593,imu_link,0.012407979678954842,-0.044458441885526924,0.05184042368650711,0.0019861519082401647,-0.00014572835069242302,9.801226492529835,-4.615570795880792e-10,5.330484785076533e-08,-4.989105566007856e-08,0.9999999999999973,0.0;0.0;0.0;0.0;0.0;0.0;0.0;0.0;0.0,0.0015242580557242036;0.0;0.0;0.0;0.0015242580557242036;0.0;0.0;0.0;0.0015242580557242036,8.000000093488779e-07;0.0;0.0;0.0;8.000000093488779e-07;0.0;0.0;0.0;8.000000093488779e-07
109,594000000,109.594,imu_link,-0.05789876797216985,0.06962540702628976,-0.018113682781430284,-0.001491744256279071,-0.0017084320864812399,9.8009785597861,-4.6155707954868294e-10,5.3304847850589606e-08,-4.9891055660078536e-08,0.9999999999999973,0.0;0.0;0.0;0.0;0.0;0.0;0.0;0.0;0.0,0.0015242580557242036;0.0;0.0;0.0;0.0015242580557242036;0.0;0.0;0.0;0.0015242580557242036,8.000000093488779e-07;0.0;0.0;0.0;8.000000093488779e-07;0.0;0.0;0.0;8.000000093488779e-07
109,595000000,109.595,imu_link,0.008216340609934336,0.040176963893400065,0.04285013242197442,-0.0010474948215533622,0.000790050537326761,9.799322953799473,-4.615570795051686e-10,5.330484785041085e-08,-4.989105566007933e-08,0.9999999999999973,0.0;0.0;0.0;0.0;0.0;0.0;0.0;0.0;0.0,0.0015242580557242036;0.0;0.0;0.0;0.0015242580557242036;0.0;0.0;0.0;0.0015242580557242036,8.000000093488779e-07;0.0;0.0;0.0;8.000000093488779e-07;0.0;0.0;0.0;8.000000093488779e-07
109,596000000,109.596,imu_link,-0.011902165898460954,0.0009226875595203445,-0.054345231634046635,0.0018076487087147512,-0.0006737898497957491,9.801294389035396,-4.615570794253956e-10,5.3304847850883044e-08,-4.9891055660079965e-08,0.9999999999999973,0.0;0.0;0.0;0.0;0.0;0.0;0.0;0.0;0.0,0.0015242580557242036;0.0;0.0;0.0;0.0015242580557242036;0.0;0.0;0.0;0.0015242580557242036,8.000000093488779e-07;0.0;0.0;0.0;8.000000093488779e-07;0.0;0.0;0.0;8.000000093488779e-07
109,597000000,109.597,imu_link,0.02117097568872497,0.043150580444747566,0.011062786274876777,-0.0011523004163682949,-0.0006052241626458596,9.797622288632622,-4.6155707938350986e-10,5.3304847850707536e-08,-4.9891055660080104e-08,0.9999999999999973,0.0;0.0;0.0;0.0;0.0;0.0;0.0;0.0;0.0,0.0015242580557242036;0.0;0.0;0.0;0.0015242580557242036;0.0;0.0;0.0;0.0015242580557242036,8.000000093488779e-07;0.0;0.0;0.0;8.000000093488779e-07;0.0;0.0;0.0;8.000000093488779e-07
109,598000000,109.598,imu_link,-0.03163134482106086,0.005651118198431675,-0.03142614760421172,0.0005492086118561975,0.0004354745725949179,9.798250484541665,-4.6155707958824663e-10,5.330484785057821e-08,-4.9891055660080673e-08,0.9999999999999973,0.0;0.0;0.0;0.0;0.0;0.0;0.0;0.0;0.0,0.0015242580557242036;0.0;0.0;0.0;0.0015242580557242036;0.0;0.0;0.0;0.0015242580557242036,8.000000093488779e-07;0.0;0.0;0.0;8.000000093488779e-07;0.0;0.0;0.0;8.000000093488779e-07
109,599000000,109.599,imu_link,-0.022100650782072618,-0.04539845971281084,0.09194707254116471,-0.0004483098326762182,-0.0006515164714378961,9.798833589893738,-4.6155707954858694e-10,5.330484785040184e-08,-4.989105566008105e-08,0.9999999999999973,0.0;0.0;0.0;0.0;0.0;0.0;0.0;0.0;0.0,0.0015242580557242036;0.0;0.0;0.0;0.0015242580557242036;0.0;0.0;0.0;0.0015242580557242036,8.000000093488779e-07;0.0;0.0;0.0;8.000000093488779e-07;0.0;0.0;0.0;8.000000093488779e-07
109,600000000,109.6,imu_link,-0.06926617496797648,0.02976891480453959,-0.002208909409972293,0.00011698539565010502,-0.00048519372213449703,9.798947444775834,-4.615570795109823e-10,5.3304847850687994e-08,-4.989105566008171e-08,0.9999999999999973,0.0;0.0;0.0;0.0;0.0;0.0;0.0;0.0;0.0,0.0015242580557242036;0.0;0.0;0.0;0.0015242580557242036;0.0;0.0;0.0;0.0015242580557242036,8.000000093488779e-07;0.0;0.0;0.0;8.000000093488779e-07;0.0;0.0;0.0;8.000000093488779e-07
109,601000000,109.601,imu_link,0.011596920332906425,-0.02915345814714536,0.01229091904649455,-0.0020263146917845784,0.0002425465415055561,9.798227073659994,-4.615570794678852e-10,5.330484785050881e-08,-4.9891055660081964e-08,0.9999999999999973,0.0;0.0;0.0;0.0;0.0;0.0;0.0;0.0;0.0,0.0015242580557242036;0.0;0.0;0.0;0.0015242580557242036;0.0;0.0;0.0;0.0015242580557242036,8.000000093488779e-07;0.0;0.0;0.0;8.000000093488779e-07;0.0;0.0;0.0;8.000000093488779e-07
109,602000000,109.602,imu_link,-0.024066817733034682,-0.008468726433143989,-0.03363164079788237,-0.0013240202738992906,-0.0010428853886810285,9.800274850136317,-4.6155707942680367e-10,5.330484785033156e-08,-4.989105566008241e-08,0.9999999999999973,0.0;0.0;0.0;0.0;0.0;0.0;0.0;0.0;0.0,0.0015242580557242036;0.0;0.0;0.0;0.0015242580557242036;0.0;0.0;0.0;0.0015242580557242036,8.000000093488779e-07;0.0;0.0;0.0;8.000000093488779e-07;0.0;0.0;0.0;8.000000093488779e-07
109,603000000,109.603,imu_link,-0.026730739504610867,0.0033352353121910506,0.028954321145882155,-0.0004190020738533088,-0.00126171923499256,9.800247927399317,-4.615570793518698e-10,5.330484785080658e-08,-4.98910556600828e-08,0.9999999999999973,0.0;0.0;0.0;0.0;0.0;0.0;0.0;0.0;0.0,0.0015242580557242036;0.0;0.0;0.0;0.0015242580557242036;0.0;0.0;0.0;0.0015242580557242036,8.000000093488779e-07;0.0;0.0;0.0;8.000000093488779e-07;0.0;0.0;0.0;8.000000093488779e-07
109,604000000,109.604,imu_link,-0.10255069617266509,-0.021814027859194614,0.033057937387009545,0.002057658966881385,-0.0010112082499984163,9.800442817171895,-4.615570795600173e-10,5.3304847850677036e-08,-4.989105566008325e-08,0.9999999999999973,0.0;0.0;0.0;0.0;0.0;0.0;0.0;0.0;0.0,0.0015242580557242036;0.0;0.0;0.0;0.0015242580557242036;0.0;0.0;0.0;0.0015242580557242036,8.000000093488779e-07;0.0;0.0;0.0;8.000000093488779e-07;0.0;0.0;0.0;8.000000093488779e-07
109,605000000,109.605,imu_link,-0.0004920663163918384,0.08670393339848291,-0.006528951185805478,-0.0007312296848759029,0.003182135698303438,9.798950730571876,-4.615570795205093e-10,5.3304847850500224e-08,-4.9891055660083645e-08,0.9999999999999973,0.0;0.0;0.0;0.0;0.0;0.0;0.0;0.0;0.0,0.0015242580557242036;0.0;0.0;0.0;0.0015242580557242036;0.0;0.0;0.0;0.0015242580557242036,8.000000093488779e-07;0.0;0.0;0.0;8.000000093488779e-07;0.0;0.0;0.0;8.000000093488779e-07
109,606000000,109.606,imu_link,0.015790356092512392,-0.049001618591780004,-0.00360831147693713,0.0005655398258204579,0.0003772792563700248,9.800708166251749,-4.615570794818159e-10,5.330484785032104e-08,-4.9891055660084326e-08,0.9999999999999973,0.0;0.0;0.0;0.0;0.0;0.0;0.0;0.0;0.0,0.0015242580557242036;0.0;0.0;0.0;0.0015242580557242036;0.0;0.0;0.0;0.0015242580557242036,8.000000093488779e-07;0.0;0.0;0.0;8.000000093488779e-07;0.0;0.0;0.0;8.000000093488779e-07
109,607000000,109.607,imu_link,0.027535951906498924,0.006509638778641418,8.214018499142178e-05,-0.0008302199015984609,0.0017627364065297092,9.797585596378903,-4.6155707940937094e-10,5.330484785079519e-08,-4.989105566008465e-08,0.9999999999999973,0.0;0.0;0.0;0.0;0.0;0.0;0.0;0.0;0.0,0.0015242580557242036;0.0;0.0;0.0;0.0015242580557242036;0.0;0.0;0.0;0.0015242580557242036,8.000000093488779e-07;0.0;0.0;0.0;8.000000093488779e-07;0.0;0.0;0.0;8.000000093488779e-07
109,608000000,109.608,imu_link,0.04155510138135207,-0.01657615649755978,-0.024770076779688337,0.0010269028410782438,-0.0008893490720066717,9.79997238797602,-4.6155707936754523e-10,5.3304847850619246e-08,-4.989105566008492e-08,0.9999999999999973,0.0;0.0;0.0;0.0;0.0;0.0;0.0;0.0;0.0,0.0015242580557242036;0.0;0.0;0.0;0.0015242580557242036;0.0;0.0;0.0;0.0015242580557242036,8.000000093488779e-07;0.0;0.0;0.0;8.000000093488779e-07;0.0;0.0;0.0;8.000000093488779e-07
109,609000000,109.609,imu_link,-0.016698264832683864,0.02160431864996583,0.005374030182496522,-0.000764929178060064,-0.0002311655226604043,9.797830977805289,-4.615570795722581e-10,5.330484785048668e-08,-4.989105566008569e-08,0.9999999999999973,0.0;0.0;0.0;0.0;0.0;0.0;0.0;0.0;0.0,0.0015242580557242036;0.0;0.0;0.0;0.0015242580557242036;0.0;0.0;0.0;0.0015242580557242036,8.000000093488779e-07;0.0;0.0;0.0;8.000000093488779e-07;0.0;0.0;0.0;8.000000093488779e-07
109,610000000,109.61,imu_link,0.024695514920199918,0.08279069128490102,0.02065393146440436,-0.0004488370649398884,-0.0008394452447908515,9.799162094693306,-4.61557079531795e-10,5.3304847850310516e-08,-4.989105566008569e-08,0.9999999999999973,0.0;0.0;0.0;0.0;0.0;0.0;0.0;0.0;0.0,0.0015242580557242036;0.0;0.0;0.0;0.0015242580557242036;0.0;0.0;0.0;0.0015242580557242036,8.000000093488779e-07;0.0;0.0;0.0;8.000000093488779e-07;0.0;0.0;0.0;8.000000093488779e-07
109,611000000,109.611,imu_link,-0.04764813627095543,-0.022498476324669652,0.001076717395874869,-0.0002348977654430329,-0.0009720106039110215,9.801335394554535,-4.615570794917098e-10,5.330484785059623e-08,-4.9891055660086483e-08,0.9999999999999973,0.0;0.0;0.0;0.0;0.0;0.0;0.0;0.0;0.0,0.0015242580557242036;0.0;0.0;0.0;0.0015242580557242036;0.0;0.0;0.0;0.0015242580557242036,8.000000093488779e-07;0.0;0.0;0.0;8.000000093488779e-07;0.0;0.0;0.0;8.000000093488779e-07
109,612000000,109.612,imu_link,-0.0366057818763296,0.0014898233412608403,-0.018087218759965187,-0.0009535265614697803,0.0019855378097691882,9.799994012880818,-4.6155707944790293e-10,5.3304847850418115e-08,-4.989105566008683e-08,0.9999999999999973,0.0;0.0;0.0;0.0;0.0;0.0;0.0;0.0;0.0,0.0015242580557242036;0.0;0.0;0.0;0.0015242580557242036;0.0;0.0;0.0;0.0015242580557242036,8.000000093488779e-07;0.0;0.0;0.0;8.000000093488779e-07;0.0;0.0;0.0;8.000000093488779e-07
109,613000000,109.613,imu_link,-0.03657724292076333,0.009142662242527785,-0.031113572689911925,-0.0016564032761878754,-0.0010993903666010258,9.798772225405555,-4.615570793717607e-10,5.3304847850892473e-08,-4.9891055660087225e-08,0.9999999999999973,0.0;0.0;0.0;0.0;0.0;0.0;0.0;0.0;0.0,0.0015242580557242036;0.0;0.0;0.0;0.0015242580557242036;0.0;0.0;0.0;0.0015242580557242036,8.000000093488779e-07;0.0;0.0;0.0;8.000000093488779e-07;0.0;0.0;0.0;8.000000093488779e-07
109,614000000,109.614,imu_link,0.07275850020683769,0.052806506057331025,-0.010281559712535603,-0.0003630996431047937,0.00047458431735336115,9.799995876656347,-4.6155707957963625e-10,5.330484785076186e-08,-4.98910556600875e-08,0.9999999999999973,0.0;0.0;0.0;0.0;0.0;0.0;0.0;0.0;0.0,0.0015242580557242036;0.0;0.0;0.0;0.0015242580557242036;0.0;0.0;0.0;0.0015242580557242036,8.000000093488779e-07;0.0;0.0;0.0;8.000000093488779e-07;0.0;0.0;0.0;8.000000093488779e-07
109,615000000,109.615,imu_link,0.038155856940104274,0.045403600855334916,-0.00023299614689369037,-5.1511461632685354e-05,-0.0001500932493419549,9.79996605826628,-4.61557079541151e-10,5.330484785058114e-08,-4.989105566008786e-08,0.9999999999999973,0.0;0.0;0.0;0.0;0.0;0.0;0.0;0.0;0.0,0.0015242580557242036;0.0;0.0;0.0;0.0015242580557242036;0.0;0.0;0.0;0.0015242580557242036,8.000000093488779e-07;0.0;0.0;0.0;8.000000093488779e-07;0.0;0.0;0.0;8.000000093488779e-07
109,616000000,109.616,imu_link,-0.01609155642762249,0.04904071925836854,0.09692014058925508,-0.0002933438012740031,-0.0012279088574386387,9.80119950730388,-4.6155707950285543e-10,5.330484785040672e-08,-4.989105566008855e-08,0.9999999999999973,0.0;0.0;0.0;0.0;0.0;0.0;0.0;0.0;0.0,0.0015242580557242036;0.0;0.0;0.0;0.0015242580557242036;0.0;0.0;0.0;0.0015242580557242036,8.000000093488779e-07;0.0;0.0;0.0;8.000000093488779e-07;0.0;0.0;0.0;8.000000093488779e-07
109,617000000,109.617,imu_link,0.042294272789236025,0.06930985925542167,-0.08912073674716889,0.000175729335271956,0.00043528130892826153,9.800860861996869,-4.6155707942232397e-10,5.330484785088022e-08,-4.989105566008877e-08,0.9999999999999973,0.0;0.0;0.0;0.0;0.0;0.0;0.0;0.0;0.0,0.0015242580557242036;0.0;0.0;0.0;0.0015242580557242036;0.0;0.0;0.0;0.0015242580557242036,8.000000093488779e-07;0.0;0.0;0.0;8.000000093488779e-07;0.0;0.0;0.0;8.000000093488779e-07
109,618000000,109.618,imu_link,0.014458331100113747,0.08933521186418901,0.010484058955100944,0.0003559912701559607,0.0003554849043308256,9.799244385033823,-4.615570793811949e-10,5.330484785070514e-08,-4.989105566008884e-08,0.9999999999999973,0.0;0.0;0.0;0.0;0.0;0.0;0.0;0.0;0.0,0.0015242580557242036;0.0;0.0;0.0;0.0015242580557242036;0.0;0.0;0.0;0.0015242580557242036,8.000000093488779e-07;0.0;0.0;0.0;8.000000093488779e-07;0.0;0.0;0.0;8.000000093488779e-07
109,619000000,109.619,imu_link,0.042793639062830284,0.00815790943509664,-0.03435687591361456,0.00026196772717148383,-0.0004349258872929805,9.79882972618654,-4.6155707958415224e-10,5.33048478505717e-08,-4.989105566008958e-08,0.9999999999999973,0.0;0.0;0.0;0.0;0.0;0.0;0.0;0.0;0.0,0.0015242580557242036;0.0;0.0;0.0;0.0015242580557242036;0.0;0.0;0.0;0.0015242580557242036,8.000000093488779e-07;0.0;0.0;0.0;8.000000093488779e-07;0.0;0.0;0.0;8.000000093488779e-07
109,620000000,109.62,imu_link,-0.0010732151131463467,-0.004629843136227345,0.009981395539413157,-0.00023751381164625234,-0.0012700681642443187,9.799231051223552,-4.6155707954287877e-10,5.3304847850395106e-08,-4.9891055660089865e-08,0.9999999999999973,0.0;0.0;0.0;0.0;0.0;0.0;0.0;0.0;0.0,0.0015242580557242036;0.0;0.0;0.0;0.0015242580557242036;0.0;0.0;0.0;0.0015242580557242036,8.000000093488779e-07;0.0;0.0;0.0;8.000000093488779e-07;0.0;0.0;0.0;8.000000093488779e-07
109,621000000,109.621,imu_link,0.003174727552218192,0.08186331890286551,-0.04072933277556215,0.0007451161975958705,-0.0005350038219162395,9.800488633875647,-4.6155707950144064e-10,5.330484785068103e-08,-4.989105566009038e-08,0.9999999999999973,0.0;0.0;0.0;0.0;0.0;0.0;0.0;0.0;0.0,0.0015242580557242036;0.0;0.0;0.0;0.0015242580557242036;0.0;0.0;0.0;0.0015242580557242036,8.000000093488779e-07;0.0;0.0;0.0;8.000000093488779e-07;0.0;0.0;0.0;8.000000093488779e-07
109,622000000,109.622,imu_link,-0.01014569208541399,-0.013215586401932052,-0.09850754206341943,-0.0005851606605429737,-0.0014600683615545275,9.801618842040773,-4.615570794612366e-10,5.3304847850502494e-08,-4.989105566009091e-08,0.9999999999999973,0.0;0.0;0.0;0.0;0.0;0.0;0.0;0.0;0.0,0.0015242580557242036;0.0;0.0;0.0;0.0015242580557242036;0.0;0.0;0.0;0.0015242580557242036,8.000000093488779e-07;0.0;0.0;0.0;8.000000093488779e-07;0.0;0.0;0.0;8.000000093488779e-07
109,623000000,109.623,imu_link,0.005997347031886638,-0.009722786535957088,-0.012933611521465457,-0.0009976634075605023,-0.0004391453142603471,9.799790197090502,-4.6155707942396675e-10,5.3304847850327635e-08,-4.989105566009123e-08,0.9999999999999973,0.0;0.0;0.0;0.0;0.0;0.0;0.0;0.0;0.0,0.0015242580557242036;0.0;0.0;0.0;0.0015242580557242036;0.0;0.0;0.0;0.0015242580557242036,8.000000093488779e-07;0.0;0.0;0.0;8.000000093488779e-07;0.0;0.0;0.0;8.000000093488779e-07
109,624000000,109.624,imu_link,-0.026763047134335825,-0.015754891608520262,-0.0008508962009908008,-0.0011457503532196092,-0.00029067308629346177,9.799691960521974,-4.615570793485748e-10,5.330484785080243e-08,-4.9891055660091665e-08,0.9999999999999973,0.0;0.0;0.0;0.0;0.0;0.0;0.0;0.0;0.0,0.0015242580557242036;0.0;0.0;0.0;0.0015242580557242036;0.0;0.0;0.0;0.0015242580557242036,8.000000093488779e-07;0.0;0.0;0.0;8.000000093488779e-07;0.0;0.0;0.0;8.000000093488779e-07
109,625000000,109.625,imu_link,0.014963750037259473,-0.011984126327420512,-0.01920702912310543,-0.0004526703129851339,-0.00042005989953947456,9.801978390530904,-4.6155707955630066e-10,5.3304847850672457e-08,-4.989105566009262e-08,0.9999999999999973,0.0;0.0;0.0;0.0;0.0;0.0;0.0;0.0;0.0,0.0015242580557242036;0.0;0.0;0.0;0.0015242580557242036;0.0;0.0;0.0;0.0015242580557242036,8.000000093488779e-07;0.0;0.0;0.0;8.000000093488779e-07;0.0;0.0;0.0;8.000000093488779e-07
109,626000000,109.626,imu_link,-0.01558346320389925,-0.009375050147412006,0.005031181606741283,0.0018233511371268762,-1.78703522821429e-05,9.800933881712242,-4.615570795135445e-10,5.3304847850496294e-08,-4.9891055660092545e-08,0.9999999999999973,0.0;0.0;0.0;0.0;0.0;0.0;0.0;0.0;0.0,0.0015242580557242036;0.0;0.0;0.0;0.0015242580557242036;0.0;0.0;0.0;0.0015242580557242036,8.000000093488779e-07;0.0;0.0;0.0;8.000000093488779e-07;0.0;0.0;0.0;8.000000093488779e-07
109,627000000,109.627,imu_link,-0.04002040688224638,0.06640697989908116,0.03174222818790964,0.000716130279358029,-0.0006374463973459906,9.799261346123242,-4.615570794738854e-10,5.3304847850317106e-08,-4.989105566009356e-08,0.9999999999999973,0.0;0.0;0.0;0.0;0.0;0.0;0.0;0.0;0.0,0.0015242580557242036;0.0;0.0;0.0;0.0015242580557242036;0.0;0.0;0.0;0.0015242580557242036,8.000000093488779e-07;0.0;0.0;0.0;8.000000093488779e-07;0.0;0.0;0.0;8.000000093488779e-07
109,628000000,109.628,imu_link,0.008673044431539089,0.022698388189791877,0.016704579433608705,0.000613864591280503,0.0005397753199741016,9.800518495767804,-4.615570793976624e-10,5.330484785079082e-08,-4.9891055660093974e-08,0.9999999999999973,0.0;0.0;0.0;0.0;0.0;0.0;0.0;0.0;0.0,0.0015242580557242036;0.0;0.0;0.0;0.0015242580557242036;0.0;0.0;0.0;0.0015242580557242036,8.000000093488779e-07;0.0;0.0;0.0;8.000000093488779e-07;0.0;0.0;0.0;8.000000093488779e-07
109,629000000,109.629,imu_link,-0.05067692366102539,-0.017220667699449254,0.009607305769687184,0.00017656317984549776,0.0007071331930862278,9.80125339665815,-4.615570795971436e-10,5.330484785066064e-08,-4.989105566009413e-08,0.9999999999999973,0.0;0.0;0.0;0.0;0.0;0.0;0.0;0.0;0.0,0.0015242580557242036;0.0;0.0;0.0;0.0015242580557242036;0.0;0.0;0.0;0.0015242580557242036,8.000000093488779e-07;0.0;0.0;0.0;8.000000093488779e-07;0.0;0.0;0.0;8.000000093488779e-07
109,630000000,109.63,imu_link,-0.0065777990670909045,0.01702097800734631,0.0549927505629178,0.0007807837698844675,-0.0015327631271491629,9.800403326936909,-4.615570795585444e-10,5.330484785048339e-08,-4.989105566009442e-08,0.9999999999999973,0.0;0.0;0.0;0.0;0.0;0.0;0.0;0.0;0.0,0.0015242580557242036;0.0;0.0;0.0;0.0015242580557242036;0.0;0.0;0.0;0.0015242580557242036,8.000000093488779e-07;0.0;0.0;0.0;8.000000093488779e-07;0.0;0.0;0.0;8.000000093488779e-07
109,631000000,109.631,imu_link,-0.027533909866051354,-0.01629412285057702,-0.027628871968541652,-0.0011901735204114428,0.0006384442622480989,9.80067322162361,-4.6155707951809567e-10,5.330484785030506e-08,-4.989105566009494e-08,0.9999999999999973,0.0;0.0;0.0;0.0;0.0;0.0;0.0;0.0;0.0,0.0015242580557242036;0.0;0.0;0.0;0.0015242580557242036;0.0;0.0;0.0;0.0015242580557242036,8.000000093488779e-07;0.0;0.0;0.0;8.000000093488779e-07;0.0;0.0;0.0;8.000000093488779e-07
109,632000000,109.632,imu_link,0.015400378787060865,0.059736967394272304,-0.02926608853295532,0.0020501463105099395,-0.000674186365538334,9.79975522372034,-4.615570794788199e-10,5.3304847850589904e-08,-4.9891055660095364e-08,0.9999999999999973,0.0;0.0;0.0;0.0;0.0;0.0;0.0;0.0;0.0,0.0015242580557242036;0.0;0.0;0.0;0.0015242580557242036;0.0;0.0;0.0;0.0015242580557242036,8.000000093488779e-07;0.0;0.0;0.0;8.000000093488779e-07;0.0;0.0;0.0;8.000000093488779e-07
109,633000000,109.633,imu_link,0.02513133979207451,0.036154932961128275,-0.043603057077142265,-0.0001987876459100434,-0.0013021734982960075,9.801208284728979,-4.615570794395751e-10,5.330484785041331e-08,-4.989105566009587e-08,0.9999999999999973,0.0;0.0;0.0;0.0;0.0;0.0;0.0;0.0;0.0,0.0015242580557242036;0.0;0.0;0.0;0.0015242580557242036;0.0;0.0;0.0;0.0015242580557242036,8.000000093488779e-07;0.0;0.0;0.0;8.000000093488779e-07;0.0;0.0;0.0;8.000000093488779e-07
109,634000000,109.634,imu_link,-0.042124086067195865,0.06270801300281285,0.0522869127839619,-0.0008306519853718155,-0.0001349716544509564,9.79889417195507,-4.615570793678295e-10,5.330484785088746e-08,-4.98910556600962e-08,0.9999999999999973,0.0;0.0;0.0;0.0;0.0;0.0;0.0;0.0;0.0,0.0015242580557242036;0.0;0.0;0.0;0.0015242580557242036;0.0;0.0;0.0;0.0015242580557242036,8.000000093488779e-07;0.0;0.0;0.0;8.000000093488779e-07;0.0;0.0;0.0;8.000000093488779e-07
109,635000000,109.635,imu_link,0.0035775727879684806,0.01082728647528751,0.032745848936265566,0.0005961411830157469,-1.2368086331234046e-05,9.800323032235646,-4.615570795703978e-10,5.33048478507564e-08,-4.9891055660096827e-08,0.9999999999999973,0.0;0.0;0.0;0.0;0.0;0.0;0.0;0.0;0.0,0.0015242580557242036;0.0;0.0;0.0;0.0015242580557242036;0.0;0.0;0.0;0.0015242580557242036,8.000000093488779e-07;0.0;0.0;0.0;8.000000093488779e-07;0.0;0.0;0.0;8.000000093488779e-07
109,636000000,109.636,imu_link,-0.05394686509538631,-0.04321978399573271,-0.03159720762671505,0.0006786037465859796,0.0007436554548037608,9.799698632114238,-4.6155707953072015e-10,5.330484785057786e-08,-4.9891055660096866e-08,0.9999999999999973,0.0;0.0;0.0;0.0;0.0;0.0;0.0;0.0;0.0,0.0015242580557242036;0.0;0.0;0.0;0.0015242580557242036;0.0;0.0;0.0;0.0015242580557242036,8.000000093488779e-07;0.0;0.0;0.0;8.000000093488779e-07;0.0;0.0;0.0;8.000000093488779e-07
109,637000000,109.637,imu_link,-0.025200469813058107,-0.049335857840493685,-0.026862840296744385,0.0006284954806783096,-0.00082586894661012,9.80042814975242,-4.6155707949350033e-10,5.330484785040061e-08,-4.9891055660097144e-08,0.9999999999999973,0.0;0.0;0.0;0.0;0.0;0.0;0.0;0.0;0.0,0.0015242580557242036;0.0;0.0;0.0;0.0015242580557242036;0.0;0.0;0.0;0.0015242580557242036,8.000000093488779e-07;0.0;0.0;0.0;8.000000093488779e-07;0.0;0.0;0.0;8.000000093488779e-07
109,638000000,109.638,imu_link,0.06424475501716352,-0.02250135964390618,-0.07252291015380548,-0.0008534408406082472,-0.00123693615426899,9.800090329926295,-4.6155707942047253e-10,5.330484785087346e-08,-4.989105566009754e-08,0.9999999999999973,0.0;0.0;0.0;0.0;0.0;0.0;0.0;0.0;0.0,0.0015242580557242036;0.0;0.0;0.0;0.0015242580557242036;0.0;0.0;0.0;0.0015242580557242036,8.000000093488779e-07;0.0;0.0;0.0;8.000000093488779e-07;0.0;0.0;0.0;8.000000093488779e-07
109,639000000,109.639,imu_link,-0.026403912050063358,0.005394723981607583,0.015584037033253957,0.0004725488566292862,0.0006243027736280854,9.800289460676359,-4.6155707937656243e-10,5.3304847850697954e-08,-4.9891055660097945e-08,0.9999999999999973,0.0;0.0;0.0;0.0;0.0;0.0;0.0;0.0;0.0,0.0015242580557242036;0.0;0.0;0.0;0.0015242580557242036;0.0;0.0;0.0;0.0015242580557242036,8.000000093488779e-07;0.0;0.0;0.0;8.000000093488779e-07;0.0;0.0;0.0;8.000000093488779e-07
109,640000000,109.64,imu_link,-0.045428288741289964,-0.050681226314827826,-0.06973735652617667,-0.0013700908821211544,0.00010636045734067158,9.800173614244027,-4.615570795796013e-10,5.330484785056734e-08,-4.9891055660098256e-08,0.9999999999999973,0.0;0.0;0.0;0.0;0.0;0.0;0.0;0.0;0.0,0.0015242580557242036;0.0;0.0;0.0;0.0015242580557242036;0.0;0.0;0.0;0.0015242580557242036,8.000000093488779e-07;0.0;0.0;0.0;8.000000093488779e-07;0.0;0.0;0.0;8.000000093488779e-07
109,641000000,109.641,imu_link,-0.03336003032095746,-0.006945962837674102,0.02573790449487831,0.001586104573483536,0.0008806510171182817,9.800219867832531,-4.61557079539605e-10,5.330484785038967e-08,-4.989105566009888e-08,0.9999999999999973,0.0;0.0;0.0;0.0;0.0;0.0;0.0;0.0;0.0,0.0015242580557242036;0.0;0.0;0.0;0.0015242580557242036;0.0;0.0;0.0;0.0015242580557242036,8.000000093488779e-07;0.0;0.0;0.0;8.000000093488779e-07;0.0;0.0;0.0;8.000000093488779e-07
109,642000000,109.642,imu_link,-0.0019481896339170297,-0.028257498048480486,0.00014267708147962127,0.0012097025842302983,0.0007996589330714948,9.799428684717792,-4.615570795006476e-10,5.330484785067516e-08,-4.989105566009925e-08,0.9999999999999973,0.0;0.0;0.0;0.0;0.0;0.0;0.0;0.0;0.0,0.0015242580557242036;0.0;0.0;0.0;0.0015242580557242036;0.0;0.0;0.0;0.0015242580557242036,8.000000093488779e-07;0.0;0.0;0.0;8.000000093488779e-07;0.0;0.0;0.0;8.000000093488779e-07
109,643000000,109.643,imu_link,-0.026358199492376038,0.034282204553419945,0.020806212663118297,0.0011411809852772646,-0.0018083061590778776,9.8006887382766,-4.615570794649181e-10,5.3304847850498795e-08,-4.989105566009955e-08,0.9999999999999973,0.0;0.0;0.0;0.0;0.0;0.0;0.0;0.0;0.0,0.0015242580557242036;0.0;0.0;0.0;0.0015242580557242036;0.0;0.0;0.0;0.0015242580557242036,8.000000093488779e-07;0.0;0.0;0.0;8.000000093488779e-07;0.0;0.0;0.0;8.000000093488779e-07
109,644000000,109.644,imu_link,-0.012734884871449493,0.057399419530034634,0.009667478283526966,0.00031501367767257447,0.0009584729192547726,9.80128073985301,-4.615570794238559e-10,5.330484785031938e-08,-4.989105566009988e-08,0.9999999999999973,0.0;0.0;0.0;0.0;0.0;0.0;0.0;0.0;0.0,0.0015242580557242036;0.0;0.0;0.0;0.0015242580557242036;0.0;0.0;0.0;0.0015242580557242036,8.000000093488779e-07;0.0;0.0;0.0;8.000000093488779e-07;0.0;0.0;0.0;8.000000093488779e-07
109,645000000,109.645,imu_link,-0.03834406276059823,-0.013969114767192882,-0.024462058650385553,0.00022267518198639078,-0.00023898116664866504,9.800410529384877,-4.615570793438181e-10,5.3304847850792874e-08,-4.9891055660100605e-08,0.9999999999999973,0.0;0.0;0.0;0.0;0.0;0.0;0.0;0.0;0.0,0.0015242580557242036;0.0;0.0;0.0;0.0015242580557242036;0.0;0.0;0.0;0.0015242580557242036,8.000000093488779e-07;0.0;0.0;0.0;8.000000093488779e-07;0.0;0.0;0.0;8.000000093488779e-07
109,646000000,109.646,imu_link,0.06930198644233786,0.05786838659217694,0.078041344904043,0.001863125698032142,-0.00046908689917321555,9.80091397065401,-4.6155707954803144e-10,5.330484785066117e-08,-4.989105566010123e-08,0.9999999999999973,0.0;0.0;0.0;0.0;0.0;0.0;0.0;0.0;0.0,0.0015242580557242036;0.0;0.0;0.0;0.0015242580557242036;0.0;0.0;0.0;0.0015242580557242036,8.000000093488779e-07;0.0;0.0;0.0;8.000000093488779e-07;0.0;0.0;0.0;8.000000093488779e-07
109,647000000,109.647,imu_link,-0.07304203450756656,-0.03194957564699792,0.023117555225287675,-0.0004922112771397744,0.001452507350780805,9.800450178889774,-4.6155707951252026e-10,5.3304847850485004e-08,-4.989105566010181e-08,0.9999999999999973,0.0;0.0;0.0;0.0;0.0;0.0;0.0;0.0;0.0,0.0015242580557242036;0.0;0.0;0.0;0.0015242580557242036;0.0;0.0;0.0;0.0015242580557242036,8.000000093488779e-07;0.0;0.0;0.0;8.000000093488779e-07;0.0;0.0;0.0;8.000000093488779e-07
109,648000000,109.648,imu_link,-0.03770116000500537,-0.01893547338583637,-0.014833433562388523,-0.0003513969496741276,0.00023924679301433143,9.79771240128621,-4.615570794688992e-10,5.330484785030755e-08,-4.98910556601018e-08,0.9999999999999973,0.0;0.0;0.0;0.0;0.0;0.0;0.0;0.0;0.0,0.0015242580557242036;0.0;0.0;0.0;0.0015242580557242036;0.0;0.0;0.0;0.0015242580557242036,8.000000093488779e-07;0.0;0.0;0.0;8.000000093488779e-07;0.0;0.0;0.0;8.000000093488779e-07
109,649000000,109.649,imu_link,0.04863237748142008,0.003700192114238441,0.024616280379936094,0.0003052200060340946,0.0012143632820703922,9.798326131107567,-4.615570793921864e-10,5.3304847850777575e-08,-4.989105566010241e-08,0.9999999999999973,0.0;0.0;0.0;0.0;0.0;0.0;0.0;0.0;0.0,0.0015242580557242036;0.0;0.0;0.0;0.0015242580557242036;0.0;0.0;0.0;0.0015242580557242036,8.000000093488779e-07;0.0;0.0;0.0;8.000000093488779e-07;0.0;0.0;0.0;8.000000093488779e-07
109,650000000,109.65,imu_link,0.004170729856964225,0.01955775509962083,0.05784445553292947,0.000903891781002839,-0.0010845773001260065,9.799287059106101,-4.615570795941176e-10,5.330484785064587e-08,-4.989105566010276e-08,0.9999999999999973,0.0;0.0;0.0;0.0;0.0;0.0;0.0;0.0;0.0,0.0015242580557242036;0.0;0.0;0.0;0.0015242580557242036;0.0;0.0;0.0;0.0015242580557242036,8.000000093488779e-07;0.0;0.0;0.0;8.000000093488779e-07;0.0;0.0;0.0;8.000000093488779e-07
109,651000000,109.651,imu_link,-0.03406269049993858,-0.029672368420705527,0.004238692846703567,-0.0011476614587863571,0.00028191320989087677,9.7987743017233,-4.61557079555397e-10,5.3304847850468844e-08,-4.9891055660103484e-08,0.9999999999999973,0.0;0.0;0.0;0.0;0.0;0.0;0.0;0.0;0.0,0.0015242580557242036;0.0;0.0;0.0;0.0015242580557242036;0.0;0.0;0.0;0.0015242580557242036,8.000000093488779e-07;0.0;0.0;0.0;8.000000093488779e-07;0.0;0.0;0.0;8.000000093488779e-07
109,652000000,109.652,imu_link,0.007303344343688498,-0.053279785197895474,-0.043498502921851784,-0.00023559458047610544,-3.4832873332840285e-05,9.799969732433645,-4.615570795183066e-10,5.33048478506392e-08,-4.9891055660103874e-08,0.9999999999999973,0.0;0.0;0.0;0.0;0.0;0.0;0.0;0.0;0.0,0.0015242580557242036;0.0;0.0;0.0;0.0015242580557242036;0.0;0.0;0.0;0.0015242580557242036,8.000000093488779e-07;0.0;0.0;0.0;8.000000093488779e-07;0.0;0.0;0.0;8.000000093488779e-07
109,653000000,109.653,imu_link,-0.001644239225615255,-0.03512937051540899,0.033831017246569756,0.0003660798922606763,-0.0003804007575205913,9.800099457530482,-4.6155707947948267e-10,5.3304847850460004e-08,-4.9891055660103874e-08,0.9999999999999973,0.0;0.0;0.0;0.0;0.0;0.0;0.0;0.0;0.0,0.0015242580557242036;0.0;0.0;0.0;0.0015242580557242036;0.0;0.0;0.0;0.0015242580557242036,8.000000093488779e-07;0.0;0.0;0.0;8.000000093488779e-07;0.0;0.0;0.0;8.000000093488779e-07
109,654000000,109.654,imu_link,0.051000317155428715,0.017500397932248255,-0.08375974958607331,0.00041666834718776153,-0.0031122952674842363,9.799905838037013,-4.61557079440923e-10,5.3304847850281677e-08,-4.9891055660104205e-08,0.9999999999999973,0.0;0.0;0.0;0.0;0.0;0.0;0.0;0.0;0.0,0.0015242580557242036;0.0;0.0;0.0;0.0015242580557242036;0.0;0.0;0.0;0.0015242580557242036,8.000000093488779e-07;0.0;0.0;0.0;8.000000093488779e-07;0.0;0.0;0.0;8.000000093488779e-07
109,655000000,109.655,imu_link,0.0511483363382023,-0.027682265536933995,0.029653595810047586,0.0010689376283584478,-0.0009624121137438864,9.800445012215405,-4.615570793598975e-10,5.3304847850755605e-08,-4.989105566010471e-08,0.9999999999999973,0.0;0.0;0.0;0.0;0.0;0.0;0.0;0.0;0.0,0.0015242580557242036;0.0;0.0;0.0;0.0015242580557242036;0.0;0.0;0.0;0.0015242580557242036,8.000000093488779e-07;0.0;0.0;0.0;8.000000093488779e-07;0.0;0.0;0.0;8.000000093488779e-07
