time_sec,time_nsec,timestamp,frame_id,angular_vel_x,angular_vel_y,angular_vel_z,linear_acc_x,linear_acc_y,linear_acc_z,orient_x,orient_y,orient_z,orient_w,orientation_covariance,angular_velocity_covariance,linear_acceleration_covariance
88,820000000,88.82,imu_link,-0.008790439123959505,-0.003248042104224189,-0.0025075479863462006,-1.8803829689506297e-05,-0.0002483143111546799,9.799985334168134,-4.61557079512097e-10,5.3304847850455854e-08,-4.9891055605476946e-08,0.9999999999999973,0.0;0.0;0.0;0.0;0.0;0.0;0.0;0.0;0.0,7.621289842063561e-05;0.0;0.0;0.0;7.621289842063561e-05;0.0;0.0;0.0;7.621289842063561e-05,3.999999975690116e-08;0.0;0.0;0.0;3.999999975690116e-08;0.0;0.0;0.0;3.999999975690116e-08
88,840000000,88.84,imu_link,-0.00812340254544546,-0.0023644108935003878,0.0018183572379339103,-0.00019357556291775416,-7.13482629607309e-05,9.799734379613213,-4.6155707951352704e-10,5.3304847850483965e-08,-4.989105560547494e-08,0.9999999999999973,0.0;0.0;0.0;0.0;0.0;0.0;0.0;0.0;0.0,7.621289842063561e-05;0.0;0.0;0.0;7.621289842063561e-05;0.0;0.0;0.0;7.621289842063561e-05,3.999999975690116e-08;0.0;0.0;0.0;3.999999975690116e-08;0.0;0.0;0.0;3.999999975690116e-08
88,860000000,88.86,imu_link,-0.00010145537635557481,0.012241963486379813,-0.011697302270338165,-0.0003050228811587803,-0.0003402862523818074,9.799849447271917,-4.615570796036888e-10,5.3304847850348255e-08,-4.989105560547219e-08,0.9999999999999973,0.0;0.0;0.0;0.0;0.0;0.0;0.0;0.0;0.0,7.621289842063561e-05;0.0;0.0;0.0;7.621289842063561e-05;0.0;0.0;0.0;7.621289842063561e-05,3.999999975690116e-08;0.0;0.0;0.0;3.999999975690116e-08;0.0;0.0;0.0;3.999999975690116e-08
88,880000000,88.88,imu_link,0.004205628637215924,0.010482736031474645,0.002531043788979796,4.411453337279282e-05,-4.39201874092378e-05,9.799712545326793,-4.615570793722143e-10,5.33048478504449e-08,-4.989105560547038e-08,0.9999999999999973,0.0;0.0;0.0;0.0;0.0;0.0;0.0;0.0;0.0,7.621289842063561e-05;0.0;0.0;0.0;7.621289842063561e-05;0.0;0.0;0.0;7.621289842063561e-05,3.999999975690116e-08;0.0;0.0;0.0;3.999999975690116e-08;0.0;0.0;0.0;3.999999975690116e-08
88,900000000,88.9,imu_link,-0.0017408266071846491,0.0031122777453190032,-0.015049771009694636,-0.0003035095369606022,-0.00019878366897211716,9.799912823997834,-4.6155707940726525e-10,5.3304847850597196e-08,-4.9891055605469276e-08,0.9999999999999973,0.0;0.0;0.0;0.0;0.0;0.0;0.0;0.0;0.0,7.621289842063561e-05;0.0;0.0;0.0;7.621289842063561e-05;0.0;0.0;0.0;7.621289842063561e-05,3.999999975690116e-08;0.0;0.0;0.0;3.999999975690116e-08;0.0;0.0;0.0;3.999999975690116e-08
88,920000000,88.92,imu_link,0.007771855920051073,-0.005182912779463547,-0.006742630927215864,-0.0002591592376247295,-0.0003580091375093712,9.79994360675987,-4.615570795562678e-10,5.3304847850745924e-08,-4.989105560546815e-08,0.9999999999999973,0.0;0.0;0.0;0.0;0.0;0.0;0.0;0.0;0.0,7.621289842063561e-05;0.0;0.0;0.0;7.621289842063561e-05;0.0;0.0;0.0;7.621289842063561e-05,3.999999975690116e-08;0.0;0.0;0.0;3.999999975690116e-08;0.0;0.0;0.0;3.999999975690116e-08
88,940000000,88.94,imu_link,-0.0034684608753129645,0.002988477345619527,-0.0038163300235687612,-6.386162324012454e-05,-0.0002415762197783106,9.79992720050173,-4.615570795554867e-10,5.330484785043315e-08,-4.9891055605465187e-08,0.9999999999999973,0.0;0.0;0.0;0.0;0.0;0.0;0.0;0.0;0.0,7.621289842063561e-05;0.0;0.0;0.0;7.621289842063561e-05;0.0;0.0;0.0;7.621289842063561e-05,3.999999975690116e-08;0.0;0.0;0.0;3.999999975690116e-08;0.0;0.0;0.0;3.999999975690116e-08
88,960000000,88.96,imu_link,0.015450670721688887,0.006001326325617407,0.010525435285278982,-0.0002605805017802808,0.000330624219114602,9.800076545290082,-4.615570794594231e-10,5.330484785051644e-08,-4.989105560546177e-08,0.9999999999999973,0.0;0.0;0.0;0.0;0.0;0.0;0.0;0.0;0.0,7.621289842063561e-05;0.0;0.0;0.0;7.621289842063561e-05;0.0;0.0;0.0;7.621289842063561e-05,3.999999975690116e-08;0.0;0.0;0.0;3.999999975690116e-08;0.0;0.0;0.0;3.999999975690116e-08
88,980000000,88.98,imu_link,0.001807962931698349,0.005618774164770276,0.014933489893336429,-0.000406408985853569,-0.00019780628327839065,9.799641778220694,-4.615570794212775e-10,5.330484785073755e-08,-4.989105560545788e-08,0.9999999999999973,0.0;0.0;0.0;0.0;0.0;0.0;0.0;0.0;0.0,7.621289842063561e-05;0.0;0.0;0.0;7.621289842063561e-05;0.0;0.0;0.0;7.621289842063561e-05,3.999999975690116e-08;0.0;0.0;0.0;3.999999975690116e-08;0.0;0.0;0.0;3.999999975690116e-08
89,0,89.0,imu_link,-0.006552936382493429,0.0018491022924762705,-0.000769491905040628,-0.0004877734579015774,-0.00033399660917576385,9.799989194515595,-4.61557079477474e-10,5.330484785025041e-08,-4.9891055605455777e-08,0.9999999999999973,0.0;0.0;0.0;0.0;0.0;0.0;0.0;0.0;0.0,7.621289842063561e-05;0.0;0.0;0.0;7.621289842063561e-05;0.0;0.0;0.0;7.621289842063561e-05,3.999999975690116e-08;0.0;0.0;0.0;3.999999975690116e-08;0.0;0.0;0.0;3.999999975690116e-08
89,20000000,89.02,imu_link,-0.007985959679048546,0.00582622731504407,-0.0039674494050406794,-0.00014547719004965465,-0.00017332606396161981,9.799609745802544,-4.6155707947845774e-10,5.330484785039307e-08,-4.9891055605452475e-08,0.9999999999999973,0.0;0.0;0.0;0.0;0.0;0.0;0.0;0.0;0.0,7.621289842063561e-05;0.0;0.0;0.0;7.621289842063561e-05;0.0;0.0;0.0;7.621289842063561e-05,3.999999975690116e-08;0.0;0.0;0.0;3.999999975690116e-08;0.0;0.0;0.0;3.999999975690116e-08
89,40000000,89.04,imu_link,-0.002543912696902286,-0.0069244092811111555,0.0048358016664098065,-0.00013565392486492231,0.00021558654733572896,9.800409204828705,-4.615570794531279e-10,5.3304847850734264e-08,-4.989105560544842e-08,0.9999999999999973,0.0;0.0;0.0;0.0;0.0;0.0;0.0;0.0;0.0,7.621289842063561e-05;0.0;0.0;0.0;7.621289842063561e-05;0.0;0.0;0.0;7.621289842063561e-05,3.999999975690116e-08;0.0;0.0;0.0;3.999999975690116e-08;0.0;0.0;0.0;3.999999975690116e-08
89,60000000,89.06,imu_link,-0.0032263434977349396,0.004262987246407648,-0.005786921807292741,8.293511747054816e-05,-0.00012643032699059966,9.799764345881087,-4.615570793520556e-10,5.3304847850829303e-08,-4.989105560544573e-08,0.9999999999999973,0.0;0.0;0.0;0.0;0.0;0.0;0.0;0.0;0.0,7.621289842063561e-05;0.0;0.0;0.0;7.621289842063561e-05;0.0;0.0;0.0;7.621289842063561e-05,3.999999975690116e-08;0.0;0.0;0.0;3.999999975690116e-08;0.0;0.0;0.0;3.999999975690116e-08
89,80000000,89.08,imu_link,0.00795828520236233,-0.013475726187362458,-0.012582113675339035,-7.86728237969655e-05,-0.0003504348455510426,9.799903859891101,-4.6155707950647254e-10,5.330484785050937e-08,-4.989105560544096e-08,0.9999999999999973,0.0;0.0;0.0;0.0;0.0;0.0;0.0;0.0;0.0,7.621289842063561e-05;0.0;0.0;0.0;7.621289842063561e-05;0.0;0.0;0.0;7.621289842063561e-05,3.999999975690116e-08;0.0;0.0;0.0;3.999999975690116e-08;0.0;0.0;0.0;3.999999975690116e-08
89,100000000,89.1,imu_link,0.013243646394112766,0.005018263034754325,-0.0012877067847059031,-6.137757162378972e-05,0.00024042293885342402,9.79997575266889,-4.615570795096148e-10,5.3304847850545216e-08,-4.989105560543628e-08,0.9999999999999973,0.0;0.0;0.0;0.0;0.0;0.0;0.0;0.0;0.0,7.621289842063561e-05;0.0;0.0;0.0;7.621289842063561e-05;0.0;0.0;0.0;7.621289842063561e-05,3.999999975690116e-08;0.0;0.0;0.0;3.999999975690116e-08;0.0;0.0;0.0;3.999999975690116e-08
89,120000000,89.12,imu_link,0.00964425903275217,-0.001859650263908747,-0.0009748903260016634,-9.055256322353045e-05,-0.0002910824593595243,9.800124777461068,-4.6155707948754303e-10,5.330484785088717e-08,-4.989105560543298e-08,0.9999999999999973,0.0;0.0;0.0;0.0;0.0;0.0;0.0;0.0;0.0,7.621289842063561e-05;0.0;0.0;0.0;7.621289842063561e-05;0.0;0.0;0.0;7.621289842063561e-05,3.999999975690116e-08;0.0;0.0;0.0;3.999999975690116e-08;0.0;0.0;0.0;3.999999975690116e-08
89,140000000,89.14,imu_link,0.009726952314287262,0.004678616151088064,-0.016462736387217007,-0.00021002589175782266,-0.0006139231681695336,9.799824635598162,-4.615570795479088e-10,5.3304847850386834e-08,-4.9891055605433363e-08,0.9999999999999973,0.0;0.0;0.0;0.0;0.0;0.0;0.0;0.0;0.0,7.621289842063561e-05;0.0;0.0;0.0;7.621289842063561e-05;0.0;0.0;0.0;7.621289842063561e-05,3.999999975690116e-08;0.0;0.0;0.0;3.999999975690116e-08;0.0;0.0;0.0;3.999999975690116e-08
89,160000000,89.16,imu_link,-0.0095935879273846,-0.007434220028826628,0.007068882724280641,-0.00027332661020641334,-0.00010006389070171936,9.799580691543344,-4.6155707943851314e-10,5.3304847850669446e-08,-4.989105560543174e-08,0.9999999999999973,0.0;0.0;0.0;0.0;0.0;0.0;0.0;0.0;0.0,7.621289842063561e-05;0.0;0.0;0.0;7.621289842063561e-05;0.0;0.0;0.0;7.621289842063561e-05,3.999999975690116e-08;0.0;0.0;0.0;3.999999975690116e-08;0.0;0.0;0.0;3.999999975690116e-08
89,180000000,89.18,imu_link,-0.00951254976056121,-0.0030341349868641884,-0.004316696634570671,-4.868594841029333e-06,8.053158100677898e-05,9.799870750169935,-4.6155707945324626e-10,5.330484785081859e-08,-4.9891055605429744e-08,0.9999999999999973,0.0;0.0;0.0;0.0;0.0;0.0;0.0;0.0;0.0,7.621289842063561e-05;0.0;0.0;0.0;7.621289842063561e-05;0.0;0.0;0.0;7.621289842063561e-05,3.999999975690116e-08;0.0;0.0;0.0;3.999999975690116e-08;0.0;0.0;0.0;3.999999975690116e-08
89,200000000,89.2,imu_link,0.0077694017667704115,-0.007669617667426496,0.001601174412246594,0.0001235743374206778,-0.0002897326186941469,9.799769696059691,-4.61557079595301e-10,5.3304847850493845e-08,-4.9891055605427064e-08,0.9999999999999973,0.0;0.0;0.0;0.0;0.0;0.0;0.0;0.0;0.0,7.621289842063561e-05;0.0;0.0;0.0;7.621289842063561e-05;0.0;0.0;0.0;7.621289842063561e-05,3.999999975690116e-08;0.0;0.0;0.0;3.999999975690116e-08;0.0;0.0;0.0;3.999999975690116e-08
89,220000000,89.22,imu_link,-0.009660915973836018,-0.0006882239599420835,-0.013296056894771735,-1.8402967838631278e-05,0.00010995750979463542,9.799681940170549,-4.6155707945366455e-10,5.330484785065215e-08,-4.9891055605423967e-08,0.9999999999999973,0.0;0.0;0.0;0.0;0.0;0.0;0.0;0.0;0.0,7.621289842063561e-05;0.0;0.0;0.0;7.621289842063561e-05;0.0;0.0;0.0;7.621289842063561e-05,3.999999975690116e-08;0.0;0.0;0.0;3.999999975690116e-08;0.0;0.0;0.0;3.999999975690116e-08
89,240000000,89.24,imu_link,0.006332931517390878,-0.00887046930689563,-0.0021400006318912064,-0.00013805997302794907,2.4081193053379437e-05,9.799848464526237,-4.6155707947508744e-10,5.330484785080686e-08,-4.9891055605422855e-08,0.9999999999999973,0.0;0.0;0.0;0.0;0.0;0.0;0.0;0.0;0.0,7.621289842063561e-05;0.0;0.0;0.0;7.621289842063561e-05;0.0;0.0;0.0;7.621289842063561e-05,3.999999975690116e-08;0.0;0.0;0.0;3.999999975690116e-08;0.0;0.0;0.0;3.999999975690116e-08
89,260000000,89.26,imu_link,-0.004836405144682911,-0.007502762387045994,0.004022430812654965,-0.00013296315282717428,-0.0003061236452955857,9.799631547927467,-4.615570795336286e-10,5.330484785031163e-08,-4.989105560542197e-08,0.9999999999999973,0.0;0.0;0.0;0.0;0.0;0.0;0.0;0.0;0.0,7.621289842063561e-05;0.0;0.0;0.0;7.621289842063561e-05;0.0;0.0;0.0;7.621289842063561e-05,3.999999975690116e-08;0.0;0.0;0.0;3.999999975690116e-08;0.0;0.0;0.0;3.999999975690116e-08
89,280000000,89.28,imu_link,-0.006492337375641233,-0.0012804218502199716,0.0013049409391977956,9.032608288560428e-05,-0.0004994650492050193,9.799799176901324,-4.6155707939813375e-10,5.330484785047163e-08,-4.989105560542e-08,0.9999999999999973,0.0;0.0;0.0;0.0;0.0;0.0;0.0;0.0;0.0,7.621289842063561e-05;0.0;0.0;0.0;7.621289842063561e-05;0.0;0.0;0.0;7.621289842063561e-05,3.999999975690116e-08;0.0;0.0;0.0;3.999999975690116e-08;0.0;0.0;0.0;3.999999975690116e-08
89,300000000,89.3,imu_link,0.0024262579242999406,0.001913984045668791,-0.014827141956405913,6.002206949547284e-05,-3.358194424496484e-05,9.79953826902476,-4.6155707952300633e-10,5.330484785080239e-08,-4.989105560541852e-08,0.9999999999999973,0.0;0.0;0.0;0.0;0.0;0.0;0.0;0.0;0.0,7.621289842063561e-05;0.0;0.0;0.0;7.621289842063561e-05;0.0;0.0;0.0;7.621289842063561e-05,3.999999975690116e-08;0.0;0.0;0.0;3.999999975690116e-08;0.0;0.0;0.0;3.999999975690116e-08
89,320000000,89.32,imu_link,0.0008719790405014603,-0.0014677137538445736,-0.0021382034617847224,-0.00019693136047248066,7.199076978749286e-05,9.799772061020679,-4.615570794211347e-10,5.3304847850781817e-08,-4.9891055605416396e-08,0.9999999999999973,0.0;0.0;0.0;0.0;0.0;0.0;0.0;0.0;0.0,7.621289842063561e-05;0.0;0.0;0.0;7.621289842063561e-05;0.0;0.0;0.0;7.621289842063561e-05,3.999999975690116e-08;0.0;0.0;0.0;3.999999975690116e-08;0.0;0.0;0.0;3.999999975690116e-08
89,340000000,89.34,imu_link,-0.009458727605708301,0.005516703543409241,0.005551802122460547,0.00019196798274485267,-4.212525146289076e-05,9.799680585207527,-4.615570794586032e-10,5.330484785039553e-08,-4.989105560541524e-08,0.9999999999999973,0.0;0.0;0.0;0.0;0.0;0.0;0.0;0.0;0.0,7.621289842063561e-05;0.0;0.0;0.0;7.621289842063561e-05;0.0;0.0;0.0;7.621289842063561e-05,3.999999975690116e-08;0.0;0.0;0.0;3.999999975690116e-08;0.0;0.0;0.0;3.999999975690116e-08
89,360000000,89.36,imu_link,0.0014259135370013065,0.004708194772442692,0.007164559286060789,-0.00047208725346397956,-0.0002879177411648394,9.799961403718548,-4.6155707944458883e-10,5.330484785073423e-08,-4.989105560541414e-08,0.9999999999999973,0.0;0.0;0.0;0.0;0.0;0.0;0.0;0.0;0.0,7.621289842063561e-05;0.0;0.0;0.0;7.621289842063561e-05;0.0;0.0;0.0;7.621289842063561e-05,3.999999975690116e-08;0.0;0.0;0.0;3.999999975690116e-08;0.0;0.0;0.0;3.999999975690116e-08
89,380000000,89.38,imu_link,0.005170071553029801,-0.007580869074672607,0.00045282754899377605,-0.0003747379747527615,-0.00021073513943065396,9.799638553321387,-4.615570794326354e-10,5.330484785087338e-08,-4.989105560541683e-08,0.9999999999999973,0.0;0.0;0.0;0.0;0.0;0.0;0.0;0.0;0.0,7.621289842063561e-05;0.0;0.0;0.0;7.621289842063561e-05;0.0;0.0;0.0;7.621289842063561e-05,3.999999975690116e-08;0.0;0.0;0.0;3.999999975690116e-08;0.0;0.0;0.0;3.999999975690116e-08
89,400000000,89.4,imu_link,0.01344729253495776,-0.013268771639334605,-0.0017617239208041154,-1.650460678964234e-05,-4.222445033196946e-05,9.799952462500489,-4.6155707948189193e-10,5.330484785037755e-08,-4.9891055605420076e-08,0.9999999999999973,0.0;0.0;0.0;0.0;0.0;0.0;0.0;0.0;0.0,7.621289842063561e-05;0.0;0.0;0.0;7.621289842063561e-05;0.0;0.0;0.0;7.621289842063561e-05,3.999999975690116e-08;0.0;0.0;0.0;3.999999975690116e-08;0.0;0.0;0.0;3.999999975690116e-08
89,420000000,89.42,imu_link,0.009547405902429284,0.006460360908812941,-0.00798104388299757,-0.00016046237831154677,-0.00033141433087055874,9.799866748648103,-4.615570794926206e-10,5.330484785072273e-08,-4.989105560542306e-08,0.9999999999999973,0.0;0.0;0.0;0.0;0.0;0.0;0.0;0.0;0.0,7.621289842063561e-05;0.0;0.0;0.0;7.621289842063561e-05;0.0;0.0;0.0;7.621289842063561e-05,3.999999975690116e-08;0.0;0.0;0.0;3.999999975690116e-08;0.0;0.0;0.0;3.999999975690116e-08
89,440000000,89.44,imu_link,-0.006478336040600048,-0.012843497564971948,-0.004987645874299314,2.877819471302923e-05,-1.1180203533415976e-05,9.800089627691479,-4.615570794012385e-10,5.330484785082306e-08,-4.98910556054253e-08,0.9999999999999973,0.0;0.0;0.0;0.0;0.0;0.0;0.0;0.0;0.0,7.621289842063561e-05;0.0;0.0;0.0;7.621289842063561e-05;0.0;0.0;0.0;7.621289842063561e-05,3.999999975690116e-08;0.0;0.0;0.0;3.999999975690116e-08;0.0;0.0;0.0;3.999999975690116e-08
89,460000000,89.46,imu_link,0.004408746268620614,-0.01801165103994118,0.005673228912993035,-0.00014341571582520888,-0.0003387543488831443,9.800149884776042,-4.615570794259495e-10,5.330484785050821e-08,-4.9891055605428374e-08,0.9999999999999973,0.0;0.0;0.0;0.0;0.0;0.0;0.0;0.0;0.0,7.621289842063561e-05;0.0;0.0;0.0;7.621289842063561e-05;0.0;0.0;0.0;7.621289842063561e-05,3.999999975690116e-08;0.0;0.0;0.0;3.999999975690116e-08;0.0;0.0;0.0;3.999999975690116e-08
89,480000000,89.48,imu_link,0.011582852920720081,0.010130133569816362,-0.005474291294566693,0.00013579504564781398,2.5826941236263646e-05,9.799942470119154,-4.615570795883134e-10,5.330484785066125e-08,-4.9891055605429724e-08,0.9999999999999973,0.0;0.0;0.0;0.0;0.0;0.0;0.0;0.0;0.0,7.621289842063561e-05;0.0;0.0;0.0;7.621289842063561e-05;0.0;0.0;0.0;7.621289842063561e-05,3.999999975690116e-08;0.0;0.0;0.0;3.999999975690116e-08;0.0;0.0;0.0;3.999999975690116e-08
89,500000000,89.5,imu_link,0.007166129065663889,-0.012307265070722745,0.012507676327242855,-0.00025322144586500934,-0.0004343800325644052,9.800042269063168,-4.61557079375062e-10,5.330484785030744e-08,-4.9891055605432986e-08,0.9999999999999973,0.0;0.0;0.0;0.0;0.0;0.0;0.0;0.0;0.0,7.621289842063561e-05;0.0;0.0;0.0;7.621289842063561e-05;0.0;0.0;0.0;7.621289842063561e-05,3.999999975690116e-08;0.0;0.0;0.0;3.999999975690116e-08;0.0;0.0;0.0;3.999999975690116e-08
89,520000000,89.52,imu_link,-0.0038736018513961406,-0.003240381564750823,-0.0034721726021184536,-0.00018246997306956746,0.00044510527015486875,9.799931696816769,-4.615570794123888e-10,5.3304847850475263e-08,-4.989105560543551e-08,0.9999999999999973,0.0;0.0;0.0;0.0;0.0;0.0;0.0;0.0;0.0,7.621289842063561e-05;0.0;0.0;0.0;7.621289842063561e-05;0.0;0.0;0.0;7.621289842063561e-05,3.999999975690116e-08;0.0;0.0;0.0;3.999999975690116e-08;0.0;0.0;0.0;3.999999975690116e-08
89,540000000,89.54,imu_link,-0.008861559369365071,1.8365686934892837e-05,0.010608575362676176,-0.0001477131658004097,-8.609199250671882e-06,9.799991949129451,-4.615570795795489e-10,5.3304847850616546e-08,-4.9891055605439134e-08,0.9999999999999973,0.0;0.0;0.0;0.0;0.0;0.0;0.0;0.0;0.0,7.621289842063561e-05;0.0;0.0;0.0;7.621289842063561e-05;0.0;0.0;0.0;7.621289842063561e-05,3.999999975690116e-08;0.0;0.0;0.0;3.999999975690116e-08;0.0;0.0;0.0;3.999999975690116e-08
89,560000000,89.56,imu_link,0.01310586253292555,0.0009643693462703474,0.004875045356876561,-0.00018838045067670942,0.0001023251697472834,9.79996182285595,-4.61557079370638e-10,5.3304847850725674e-08,-4.989105560543995e-08,0.9999999999999973,0.0;0.0;0.0;0.0;0.0;0.0;0.0;0.0;0.0,7.621289842063561e-05;0.0;0.0;0.0;7.621289842063561e-05;0.0;0.0;0.0;7.621289842063561e-05,3.999999975690116e-08;0.0;0.0;0.0;3.999999975690116e-08;0.0;0.0;0.0;3.999999975690116e-08
89,580000000,89.58,imu_link,-0.010181388820978224,-0.010144990328176635,-0.014693485605041839,0.00014414205368633556,1.5716496297630715e-05,9.79989540082141,-4.61557079389066e-10,5.330484785041269e-08,-4.9891055605443356e-08,0.9999999999999973,0.0;0.0;0.0;0.0;0.0;0.0;0.0;0.0;0.0,7.621289842063561e-05;0.0;0.0;0.0;7.621289842063561e-05;0.0;0.0;0.0;7.621289842063561e-05,3.999999975690116e-08;0.0;0.0;0.0;3.999999975690116e-08;0.0;0.0;0.0;3.999999975690116e-08
89,600000000,89.6,imu_link,0.001233225634453529,0.016213295751195164,-0.003132028078450123,-0.0002692052547086316,-2.8587679446795893e-05,9.799904221438542,-4.615570795521833e-10,5.3304847850555473e-08,-4.989105560544607e-08,0.9999999999999973,0.0;0.0;0.0;0.0;0.0;0.0;0.0;0.0;0.0,7.621289842063561e-05;0.0;0.0;0.0;7.621289842063561e-05;0.0;0.0;0.0;7.621289842063561e-05,3.999999975690116e-08;0.0;0.0;0.0;3.999999975690116e-08;0.0;0.0;0.0;3.999999975690116e-08
89,620000000,89.62,imu_link,-0.001996218004850627,0.00667295104562334,-0.0008232736956070439,7.102839675662579e-05,-4.179619910998187e-05,9.799836448609565,-4.615570796743628e-10,5.3304847850883785e-08,-4.989105560544922e-08,0.9999999999999973,0.0;0.0;0.0;0.0;0.0;0.0;0.0;0.0;0.0,7.621289842063561e-05;0.0;0.0;0.0;7.621289842063561e-05;0.0;0.0;0.0;7.621289842063561e-05,3.999999975690116e-08;0.0;0.0;0.0;3.999999975690116e-08;0.0;0.0;0.0;3.999999975690116e-08
89,640000000,89.64,imu_link,-0.009652240209314704,0.0054152574919924725,-0.005671020216220511,-0.0002548923078146972,-6.158710508909337e-05,9.800086979395177,-4.6155707950155216e-10,5.330484785034528e-08,-4.989105560545008e-08,0.9999999999999973,0.0;0.0;0.0;0.0;0.0;0.0;0.0;0.0;0.0,7.621289842063561e-05;0.0;0.0;0.0;7.621289842063561e-05;0.0;0.0;0.0;7.621289842063561e-05,3.999999975690116e-08;0.0;0.0;0.0;3.999999975690116e-08;0.0;0.0;0.0;3.999999975690116e-08
89,660000000,89.66,imu_link,-0.015602154195865414,0.00754345887448819,0.009656722493276943,0.00010484093631173891,0.00020243773767536147,9.799865839242726,-4.615570795176745e-10,5.33048478504958e-08,-4.989105560545315e-08,0.9999999999999973,0.0;0.0;0.0;0.0;0.0;0.0;0.0;0.0;0.0,7.621289842063561e-05;0.0;0.0;0.0;7.621289842063561e-05;0.0;0.0;0.0;7.621289842063561e-05,3.999999975690116e-08;0.0;0.0;0.0;3.999999975690116e-08;0.0;0.0;0.0;3.999999975690116e-08
89,680000000,89.68,imu_link,0.015744762602066097,0.009691723538366224,-0.01229484006717471,0.00025003153772313615,8.923156681125887e-05,9.799528561535688,-4.6155707948815224e-10,5.330484785083793e-08,-4.989105560545637e-08,0.9999999999999973,0.0;0.0;0.0;0.0;0.0;0.0;0.0;0.0;0.0,7.621289842063561e-05;0.0;0.0;0.0;7.621289842063561e-05;0.0;0.0;0.0;7.621289842063561e-05,3.999999975690116e-08;0.0;0.0;0.0;3.999999975690116e-08;0.0;0.0;0.0;3.999999975690116e-08
89,700000000,89.7,imu_link,-0.006195565020862089,-0.0024521449318222373,-0.011795586720070892,-6.639565458135341e-05,7.284706565120748e-05,9.799874532383173,-4.61557079527933e-10,5.330484785033298e-08,-4.9891055605458774e-08,0.9999999999999973,0.0;0.0;0.0;0.0;0.0;0.0;0.0;0.0;0.0,7.621289842063561e-05;0.0;0.0;0.0;7.621289842063561e-05;0.0;0.0;0.0;7.621289842063561e-05,3.999999975690116e-08;0.0;0.0;0.0;3.999999975690116e-08;0.0;0.0;0.0;3.999999975690116e-08
89,720000000,89.72,imu_link,-0.0036333844088245536,0.009160449239864971,0.004075027668926268,-0.00031415651106202284,-0.00012562265406919668,9.799852468191869,-4.615570795312239e-10,5.330484785048221e-08,-4.98910556054623e-08,0.9999999999999973,0.0;0.0;0.0;0.0;0.0;0.0;0.0;0.0;0.0,7.621289842063561e-05;0.0;0.0;0.0;7.621289842063561e-05;0.0;0.0;0.0;7.621289842063561e-05,3.999999975690116e-08;0.0;0.0;0.0;3.999999975690116e-08;0.0;0.0;0.0;3.999999975690116e-08
89,740000000,89.74,imu_link,0.00011058313277923125,0.005036650227497198,0.0012126144363237867,-0.00042121897080794305,-0.00015735180153237508,9.800167329017537,-4.615570794038947e-10,5.3304847850776145e-08,-4.989105560546342e-08,0.9999999999999973,0.0;0.0;0.0;0.0;0.0;0.0;0.0;0.0;0.0,7.621289842063561e-05;0.0;0.0;0.0;7.621289842063561e-05;0.0;0.0;0.0;7.621289842063561e-05,3.999999975690116e-08;0.0;0.0;0.0;3.999999975690116e-08;0.0;0.0;0.0;3.999999975690116e-08
89,760000000,89.76,imu_link,0.0009222972603661785,0.0010309182771755883,0.0016292832034321828,-0.00036117023405885223,-0.0004213104112247408,9.799749840920404,-4.6155707939657146e-10,5.330484785080873e-08,-4.989105560546617e-08,0.9999999999999973,0.0;0.0;0.0;0.0;0.0;0.0;0.0;0.0;0.0,7.621289842063561e-05;0.0;0.0;0.0;7.621289842063561e-05;0.0;0.0;0.0;7.621289842063561e-05,3.999999975690116e-08;0.0;0.0;0.0;3.999999975690116e-08;0.0;0.0;0.0;3.999999975690116e-08
89,780000000,89.78,imu_link,0.0005765129417615846,0.004097410386618172,0.012467453444981354,0.00020050860363150016,-9.005760754600859e-05,9.799695093707115,-4.615570795241271e-10,5.330484785048536e-08,-4.98910556054698e-08,0.9999999999999973,0.0;0.0;0.0;0.0;0.0;0.0;0.0;0.0;0.0,7.621289842063561e-05;0.0;0.0;0.0;7.621289842063561e-05;0.0;0.0;0.0;7.621289842063561e-05,3.999999975690116e-08;0.0;0.0;0.0;3.999999975690116e-08;0.0;0.0;0.0;3.999999975690116e-08
89,800000000,89.8,imu_link,0.0038115848283175055,-0.015573147291095215,0.008031544530754109,-0.0003873080356139604,-8.786837531728756e-05,9.79966288926826,-4.6155707953090885e-10,5.330484785064156e-08,-4.9891055605473736e-08,0.9999999999999973,0.0;0.0;0.0;0.0;0.0;0.0;0.0;0.0;0.0,7.621289842063561e-05;0.0;0.0;0.0;7.621289842063561e-05;0.0;0.0;0.0;7.621289842063561e-05,3.999999975690116e-08;0.0;0.0;0.0;3.999999975690116e-08;0.0;0.0;0.0;3.999999975690116e-08
89,820000000,89.82,imu_link,-0.003046076620752758,-0.00633973638411336,0.01593477503810671,-7.658570365705472e-05,0.00026694318823530474,9.799632895081645,-4.615570795342426e-10,5.3304847850332327e-08,-4.989105560547787e-08,0.9999999999999973,0.0;0.0;0.0;0.0;0.0;0.0;0.0;0.0;0.0,7.621289842063561e-05;0.0;0.0;0.0;7.621289842063561e-05;0.0;0.0;0.0;7.621289842063561e-05,3.999999975690116e-08;0.0;0.0;0.0;3.999999975690116e-08;0.0;0.0;0.0;3.999999975690116e-08
89,840000000,89.84,imu_link,0.0086698333872052,-0.00048152442572543065,0.005340868429875525,-3.467633174734685e-05,-1.7160078595621864e-05,9.800299953435356,-4.615570795259726e-10,5.330484785048554e-08,-4.98910556054813e-08,0.9999999999999973,0.0;0.0;0.0;0.0;0.0;0.0;0.0;0.0;0.0,7.621289842063561e-05;0.0;0.0;0.0;7.621289842063561e-05;0.0;0.0;0.0;7.621289842063561e-05,3.999999975690116e-08;0.0;0.0;0.0;3.999999975690116e-08;0.0;0.0;0.0;3.999999975690116e-08
89,860000000,89.86,imu_link,0.01074722635878869,-0.008741225112879912,-0.004003088535708465,-0.0002409436888468866,-0.0004982226990010659,9.79979607856293,-4.6155707954634404e-10,5.330484785063933e-08,-4.989105560548678e-08,0.9999999999999973,0.0;0.0;0.0;0.0;0.0;0.0;0.0;0.0;0.0,7.621289842063561e-05;0.0;0.0;0.0;7.621289842063561e-05;0.0;0.0;0.0;7.621289842063561e-05,3.999999975690116e-08;0.0;0.0;0.0;3.999999975690116e-08;0.0;0.0;0.0;3.999999975690116e-08
89,880000000,89.88,imu_link,-0.00027208803418612374,0.0017925407369885481,-0.003867690238369705,-9.876551488291081e-05,0.00018530756232982754,9.799726344542881,-4.6155707951824973e-10,5.33048478508637e-08,-4.989105560549001e-08,0.9999999999999973,0.0;0.0;0.0;0.0;0.0;0.0;0.0;0.0;0.0,7.621289842063561e-05;0.0;0.0;0.0;7.621289842063561e-05;0.0;0.0;0.0;7.621289842063561e-05,3.999999975690116e-08;0.0;0.0;0.0;3.999999975690116e-08;0.0;0.0;0.0;3.999999975690116e-08
89,900000000,89.9,imu_link,-0.005492085751172175,0.004023940859356248,0.002965572157888932,-0.0004164421810650656,0.0003071628460528149,9.799984986521075,-4.6155707941036387e-10,5.330484785049015e-08,-4.98910556054939e-08,0.9999999999999973,0.0;0.0;0.0;0.0;0.0;0.0;0.0;0.0;0.0,7.621289842063561e-05;0.0;0.0;0.0;7.621289842063561e-05;0.0;0.0;0.0;7.621289842063561e-05,3.999999975690116e-08;0.0;0.0;0.0;3.999999975690116e-08;0.0;0.0;0.0;3.999999975690116e-08
89,920000000,89.92,imu_link,0.007756026613419828,-0.01478846333114633,0.01225711480627113,-0.00015315723220534814,-0.00021110207501903809,9.799450293495406,-4.6155707954837534e-10,5.3304847850627193e-08,-4.9891055605498194e-08,0.9999999999999973,0.0;0.0;0.0;0.0;0.0;0.0;0.0;0.0;0.0,7.621289842063561e-05;0.0;0.0;0.0;7.621289842063561e-05;0.0;0.0;0.0;7.621289842063561e-05,3.999999975690116e-08;0.0;0.0;0.0;3.999999975690116e-08;0.0;0.0;0.0;3.999999975690116e-08
89,940000000,89.94,imu_link,0.00540652007329074,0.0026391080500253353,0.0023235939221989558,0.00011766781848216026,1.4159081906900815e-05,9.800063432249596,-4.6155707955724287e-10,5.3304847850655715e-08,-4.9891055605504494e-08,0.9999999999999973,0.0;0.0;0.0;0.0;0.0;0.0;0.0;0.0;0.0,7.621289842063561e-05;0.0;0.0;0.0;7.621289842063561e-05;0.0;0.0;0.0;7.621289842063561e-05,3.999999975690116e-08;0.0;0.0;0.0;3.999999975690116e-08;0.0;0.0;0.0;3.999999975690116e-08
89,960000000,89.96,imu_link,-0.006468497405302279,0.004417574470983756,0.009632527118067875,0.00037646593282494,2.329937687630551e-05,9.79990873407112,-4.6155707941128995e-10,5.3304847850474026e-08,-4.989105560550797e-08,0.9999999999999973,0.0;0.0;0.0;0.0;0.0;0.0;0.0;0.0;0.0,7.621289842063561e-05;0.0;0.0;0.0;7.621289842063561e-05;0.0;0.0;0.0;7.621289842063561e-05,3.999999975690116e-08;0.0;0.0;0.0;3.999999975690116e-08;0.0;0.0;0.0;3.999999975690116e-08
89,980000000,89.98,imu_link,-0.008716108053731953,0.00026445748712644195,-0.0006044156604312071,8.40700677917109e-05,-0.0001575277025233159,9.799820867054098,-4.6155707942070187e-10,5.330484785062054e-08,-4.989105560551341e-08,0.9999999999999973,0.0;0.0;0.0;0.0;0.0;0.0;0.0;0.0;0.0,7.621289842063561e-05;0.0;0.0;0.0;7.621289842063561e-05;0.0;0.0;0.0;7.621289842063561e-05,3.999999975690116e-08;0.0;0.0;0.0;3.999999975690116e-08;0.0;0.0;0.0;3.999999975690116e-08
90,0,90.0,imu_link,-0.021415178067523816,-0.0008148412599047257,0.008358708056981055,-0.00030087708835916993,-0.00038532483774474053,9.799615531059738,-4.6155707945372923e-10,5.330484785076565e-08,-4.989105560551858e-08,0.9999999999999973,0.0;0.0;0.0;0.0;0.0;0.0;0.0;0.0;0.0,7.621289842063561e-05;0.0;0.0;0.0;7.621289842063561e-05;0.0;0.0;0.0;7.621289842063561e-05,3.999999975690116e-08;0.0;0.0;0.0;3.999999975690116e-08;0.0;0.0;0.0;3.999999975690116e-08
90,20000000,90.02,imu_link,-0.008202400142133446,-0.021377380030877587,0.006026012262476225,-0.00013050713788024366,-0.0005356304621160788,9.80001569161961,-4.6155707960911293e-10,5.33048478504538e-08,-4.989105560552443e-08,0.9999999999999973,0.0;0.0;0.0;0.0;0.0;0.0;0.0;0.0;0.0,7.621289842063561e-05;0.0;0.0;0.0;7.621289842063561e-05;0.0;0.0;0.0;7.621289842063561e-05,3.999999975690116e-08;0.0;0.0;0.0;3.999999975690116e-08;0.0;0.0;0.0;3.999999975690116e-08
90,40000000,90.04,imu_link,0.0012236470935423787,-0.006426745788270735,0.0033324218997029384,-4.7423574878810825e-05,-0.0003559865795799559,9.800010899340334,-4.615570794866482e-10,5.330484785062197e-08,-4.989105560552855e-08,0.9999999999999973,0.0;0.0;0.0;0.0;0.0;0.0;0.0;0.0;0.0,7.621289842063561e-05;0.0;0.0;0.0;7.621289842063561e-05;0.0;0.0;0.0;7.621289842063561e-05,3.999999975690116e-08;0.0;0.0;0.0;3.999999975690116e-08;0.0;0.0;0.0;3.999999975690116e-08
90,60000000,90.06,imu_link,-0.00474041930782222,0.006112104728474626,-0.0020257553620618342,-0.00011348091291091668,-0.0003643816393259949,9.799859528946655,-4.615570794962585e-10,5.330484785077032e-08,-4.9891055605534994e-08,0.9999999999999973,0.0;0.0;0.0;0.0;0.0;0.0;0.0;0.0;0.0,7.621289842063561e-05;0.0;0.0;0.0;7.621289842063561e-05;0.0;0.0;0.0;7.621289842063561e-05,3.999999975690116e-08;0.0;0.0;0.0;3.999999975690116e-08;0.0;0.0;0.0;3.999999975690116e-08
90,80000000,90.08,imu_link,-0.01580907299958873,-0.009109023889861392,-0.0005686379904086603,-0.00016725537943930774,-8.85064242224769e-05,9.800118592077874,-4.6155707941311916e-10,5.3304847850865454e-08,-4.989105560554045e-08,0.9999999999999973,0.0;0.0;0.0;0.0;0.0;0.0;0.0;0.0;0.0,7.621289842063561e-05;0.0;0.0;0.0;7.621289842063561e-05;0.0;0.0;0.0;7.621289842063561e-05,3.999999975690116e-08;0.0;0.0;0.0;3.999999975690116e-08;0.0;0.0;0.0;3.999999975690116e-08
90,100000000,90.1,imu_link,-0.004233403692742605,0.00397403167592434,0.01232469735839701,-0.00021734059177291472,9.899168007339719e-05,9.799772585135596,-4.6155707947482016e-10,5.330484785037743e-08,-4.9891055605545655e-08,0.9999999999999973,0.0;0.0;0.0;0.0;0.0;0.0;0.0;0.0;0.0,7.621289842063561e-05;0.0;0.0;0.0;7.621289842063561e-05;0.0;0.0;0.0;7.621289842063561e-05,3.999999975690116e-08;0.0;0.0;0.0;3.999999975690116e-08;0.0;0.0;0.0;3.999999975690116e-08
90,120000000,90.12,imu_link,-0.009939292919332154,-0.006383158702657199,0.006578310513950492,-0.00019610376858860025,-0.00018110519768877972,9.800458443388873,-4.615570794368998e-10,5.330484785071851e-08,-4.989105560555056e-08,0.9999999999999973,0.0;0.0;0.0;0.0;0.0;0.0;0.0;0.0;0.0,7.621289842063561e-05;0.0;0.0;0.0;7.621289842063561e-05;0.0;0.0;0.0;7.621289842063561e-05,3.999999975690116e-08;0.0;0.0;0.0;3.999999975690116e-08;0.0;0.0;0.0;3.999999975690116e-08
90,140000000,90.14,imu_link,0.004532709435897486,-0.004391378609505319,0.01034052841727236,-8.598089040404169e-05,-0.00014578181946796686,9.799838355948934,-4.6155707942914795e-10,5.33048478508639e-08,-4.9891055605555376e-08,0.9999999999999973,0.0;0.0;0.0;0.0;0.0;0.0;0.0;0.0;0.0,7.621289842063561e-05;0.0;0.0;0.0;7.621289842063561e-05;0.0;0.0;0.0;7.621289842063561e-05,3.999999975690116e-08;0.0;0.0;0.0;3.999999975690116e-08;0.0;0.0;0.0;3.999999975690116e-08
90,160000000,90.16,imu_link,0.001481201873487147,0.00590758677545215,0.005386680066652355,-0.0005362591177581118,-0.0004483175683380447,9.79965391650481,-4.6155707947629554e-10,5.330484785036215e-08,-4.989105560556196e-08,0.9999999999999973,0.0;0.0;0.0;0.0;0.0;0.0;0.0;0.0;0.0,7.621289842063561e-05;0.0;0.0;0.0;7.621289842063561e-05;0.0;0.0;0.0;7.621289842063561e-05,3.999999975690116e-08;0.0;0.0;0.0;3.999999975690116e-08;0.0;0.0;0.0;3.999999975690116e-08
90,180000000,90.18,imu_link,0.0024114537316755552,0.0114726868590158,0.010653399914849202,-0.00017147094851227676,-0.00010166411924247593,9.799891960334609,-4.615570794602581e-10,5.330484785068826e-08,-4.989105560556947e-08,0.9999999999999973,0.0;0.0;0.0;0.0;0.0;0.0;0.0;0.0;0.0,7.621289842063561e-05;0.0;0.0;0.0;7.621289842063561e-05;0.0;0.0;0.0;7.621289842063561e-05,3.999999975690116e-08;0.0;0.0;0.0;3.999999975690116e-08;0.0;0.0;0.0;3.999999975690116e-08
90,200000000,90.2,imu_link,-0.014153774406692929,0.00858222294455128,0.002528312998899181,5.841940141081657e-06,-6.6090495995046e-05,9.799879466433085,-4.6155707946549205e-10,5.330484785084835e-08,-4.989105560557476e-08,0.9999999999999973,0.0;0.0;0.0;0.0;0.0;0.0;0.0;0.0;0.0,7.621289842063561e-05;0.0;0.0;0.0;7.621289842063561e-05;0.0;0.0;0.0;7.621289842063561e-05,3.999999975690116e-08;0.0;0.0;0.0;3.999999975690116e-08;0.0;0.0;0.0;3.999999975690116e-08
90,220000000,90.22,imu_link,-0.004275347956696772,-0.011745270241923764,0.0009513170710976497,-0.00021701180980046545,-0.00017588070825973152,9.799940786857793,-4.6155707952166066e-10,5.3304847850352424e-08,-4.98910556055799e-08,0.9999999999999973,0.0;0.0;0.0;0.0;0.0;0.0;0.0;0.0;0.0,7.621289842063561e-05;0.0;0.0;0.0;7.621289842063561e-05;0.0;0.0;0.0;7.621289842063561e-05,3.999999975690116e-08;0.0;0.0;0.0;3.999999975690116e-08;0.0;0.0;0.0;3.999999975690116e-08
90,240000000,90.24,imu_link,0.011456787627905243,0.00536562389532231,-0.00530231967018125,0.0001568063587359786,-0.0003882816103763229,9.800097074881712,-4.615570793947402e-10,5.3304847850509965e-08,-4.9891055605584354e-08,0.9999999999999973,0.0;0.0;0.0;0.0;0.0;0.0;0.0;0.0;0.0,7.621289842063561e-05;0.0;0.0;0.0;7.621289842063561e-05;0.0;0.0;0.0;7.621289842063561e-05,3.999999975690116e-08;0.0;0.0;0.0;3.999999975690116e-08;0.0;0.0;0.0;3.999999975690116e-08
90,260000000,90.26,imu_link,0.0048456019487596045,0.014431383831760097,-0.007790807694629823,-8.852696964258016e-05,9.329408621971238e-05,9.79971276662786,-4.6155707952149765e-10,5.3304847850839375e-08,-4.989105560558869e-08,0.9999999999999973,0.0;0.0;0.0;0.0;0.0;0.0;0.0;0.0;0.0,7.621289842063561e-05;0.0;0.0;0.0;7.621289842063561e-05;0.0;0.0;0.0;7.621289842063561e-05,3.999999975690116e-08;0.0;0.0;0.0;3.999999975690116e-08;0.0;0.0;0.0;3.999999975690116e-08
90,280000000,90.28,imu_link,-0.002989995943028333,0.0023553755150438915,-0.003034065675500355,-0.0002029590843367421,0.00020328118139508486,9.799629828442333,-4.615570794607962e-10,5.330484785028895e-08,-4.989105560559224e-08,0.9999999999999973,0.0;0.0;0.0;0.0;0.0;0.0;0.0;0.0;0.0,7.621289842063561e-05;0.0;0.0;0.0;7.621289842063561e-05;0.0;0.0;0.0;7.621289842063561e-05,3.999999975690116e-08;0.0;0.0;0.0;3.999999975690116e-08;0.0;0.0;0.0;3.999999975690116e-08
90,300000000,90.3,imu_link,-0.004938508972244319,0.011774664255109575,-0.00025860385442590865,0.00010281595064379256,4.665752880126341e-05,9.800024073647883,-4.615570794464607e-10,5.330484785063447e-08,-4.989105560559576e-08,0.9999999999999973,0.0;0.0;0.0;0.0;0.0;0.0;0.0;0.0;0.0,7.621289842063561e-05;0.0;0.0;0.0;7.621289842063561e-05;0.0;0.0;0.0;7.621289842063561e-05,3.999999975690116e-08;0.0;0.0;0.0;3.999999975690116e-08;0.0;0.0;0.0;3.999999975690116e-08
90,320000000,90.32,imu_link,0.005391757034121986,0.00565707772372136,0.0001375430242808538,-3.5501736506885316e-05,-0.0002680774161080595,9.800158297389252,-4.615570793542617e-10,5.330484785073638e-08,-4.989105560559847e-08,0.9999999999999973,0.0;0.0;0.0;0.0;0.0;0.0;0.0;0.0;0.0,7.621289842063561e-05;0.0;0.0;0.0;7.621289842063561e-05;0.0;0.0;0.0;7.621289842063561e-05,3.999999975690116e-08;0.0;0.0;0.0;3.999999975690116e-08;0.0;0.0;0.0;3.999999975690116e-08
90,340000000,90.34,imu_link,0.0036939207921584116,-0.0063334666109515925,0.004309147917026167,-0.00036955208515801626,-0.00030117680941065754,9.799773579357673,-4.615570793710751e-10,5.3304847850894174e-08,-4.989105560560091e-08,0.9999999999999973,0.0;0.0;0.0;0.0;0.0;0.0;0.0;0.0;0.0,7.621289842063561e-05;0.0;0.0;0.0;7.621289842063561e-05;0.0;0.0;0.0;7.621289842063561e-05,3.999999975690116e-08;0.0;0.0;0.0;3.999999975690116e-08;0.0;0.0;0.0;3.999999975690116e-08
90,360000000,90.36,imu_link,-0.005129831113034989,-0.0068228745619377,-0.007612806025435858,0.00015328192025848108,6.887575140760628e-05,9.80009802572895,-4.615570793812151e-10,5.3304847850587575e-08,-4.98910556055996e-08,0.9999999999999973,0.0;0.0;0.0;0.0;0.0;0.0;0.0;0.0;0.0,7.621289842063561e-05;0.0;0.0;0.0;7.621289842063561e-05;0.0;0.0;0.0;7.621289842063561e-05,3.999999975690116e-08;0.0;0.0;0.0;3.999999975690116e-08;0.0;0.0;0.0;3.999999975690116e-08
90,380000000,90.38,imu_link,-0.017559709549716796,0.0029728408820159807,-0.001939822480400264,-0.00015127659480498691,-9.518220970559319e-05,9.800143653406145,-4.615570795442177e-10,5.330484785061851e-08,-4.989105560560092e-08,0.9999999999999973,0.0;0.0;0.0;0.0;0.0;0.0;0.0;0.0;0.0,7.621289842063561e-05;0.0;0.0;0.0;7.621289842063561e-05;0.0;0.0;0.0;7.621289842063561e-05,3.999999975690116e-08;0.0;0.0;0.0;3.999999975690116e-08;0.0;0.0;0.0;3.999999975690116e-08
90,400000000,90.4,imu_link,0.007960673532590678,0.00806081715451854,-0.00911313048516685,0.0001085228242910584,2.6394873764246047e-06,9.799838070684723,-4.6155707956693205e-10,5.330484785031719e-08,-4.9891055605602115e-08,0.9999999999999973,0.0;0.0;0.0;0.0;0.0;0.0;0.0;0.0;0.0,7.621289842063561e-05;0.0;0.0;0.0;7.621289842063561e-05;0.0;0.0;0.0;7.621289842063561e-05,3.999999975690116e-08;0.0;0.0;0.0;3.999999975690116e-08;0.0;0.0;0.0;3.999999975690116e-08
90,420000000,90.42,imu_link,0.0016032672634904606,-0.014289399424287046,0.010774761844961551,-0.00024204801835291258,2.3028992875206216e-05,9.799861863954836,-4.6155707948092005e-10,5.3304847850417784e-08,-4.9891055605604974e-08,0.9999999999999973,0.0;0.0;0.0;0.0;0.0;0.0;0.0;0.0;0.0,7.621289842063561e-05;0.0;0.0;0.0;7.621289842063561e-05;0.0;0.0;0.0;7.621289842063561e-05,3.999999975690116e-08;0.0;0.0;0.0;3.999999975690116e-08;0.0;0.0;0.0;3.999999975690116e-08
90,440000000,90.44,imu_link,-0.0018983052073503436,0.0003765789362267521,0.009562417384227946,-0.00041197843989739343,-8.003442828713686e-05,9.79995947578797,-4.615570794849334e-10,5.330484785057992e-08,-4.989105560560598e-08,0.9999999999999973,0.0;0.0;0.0;0.0;0.0;0.0;0.0;0.0;0.0,7.621289842063561e-05;0.0;0.0;0.0;7.621289842063561e-05;0.0;0.0;0.0;7.621289842063561e-05,3.999999975690116e-08;0.0;0.0;0.0;3.999999975690116e-08;0.0;0.0;0.0;3.999999975690116e-08
90,460000000,90.46,imu_link,0.0001689270117865762,-0.004662320721012197,-0.001696508557634748,-0.00022004601578524453,-0.00046420555909165874,9.799590111554613,-4.6155707949046116e-10,5.3304847850265345e-08,-4.9891055605607945e-08,0.9999999999999973,0.0;0.0;0.0;0.0;0.0;0.0;0.0;0.0;0.0,7.621289842063561e-05;0.0;0.0;0.0;7.621289842063561e-05;0.0;0.0;0.0;7.621289842063561e-05,3.999999975690116e-08;0.0;0.0;0.0;3.999999975690116e-08;0.0;0.0;0.0;3.999999975690116e-08
90,480000000,90.48,imu_link,0.008853534565523197,0.00563171778180244,-0.002886414231863454,3.473332959000539e-06,-0.0002601355654279892,9.799945224543343,-4.61557079596974e-10,5.3304847850470446e-08,-4.989105560560895e-08,0.9999999999999973,0.0;0.0;0.0;0.0;0.0;0.0;0.0;0.0;0.0,7.621289842063561e-05;0.0;0.0;0.0;7.621289842063561e-05;0.0;0.0;0.0;7.621289842063561e-05,3.999999975690116e-08;0.0;0.0;0.0;3.999999975690116e-08;0.0;0.0;0.0;3.999999975690116e-08
90,500000000,90.5,imu_link,0.0034073996892885383,-0.010931112499717684,-0.008469218176311655,2.029613360241373e-05,-9.637095306056053e-05,9.799415332331666,-4.6155707950079694e-10,5.330484785045055e-08,-4.9891055605610354e-08,0.9999999999999973,0.0;0.0;0.0;0.0;0.0;0.0;0.0;0.0;0.0,7.621289842063561e-05;0.0;0.0;0.0;7.621289842063561e-05;0.0;0.0;0.0;7.621289842063561e-05,3.999999975690116e-08;0.0;0.0;0.0;3.999999975690116e-08;0.0;0.0;0.0;3.999999975690116e-08
90,520000000,90.52,imu_link,0.010581313272150625,-0.00017955376182843366,0.002530422093093356,-2.2483370039424864e-05,0.0002070389540855308,9.799836324941,-4.6155707936737395e-10,5.330484785074091e-08,-4.989105560561227e-08,0.9999999999999973,0.0;0.0;0.0;0.0;0.0;0.0;0.0;0.0;0.0,7.621289842063561e-05;0.0;0.0;0.0;7.621289842063561e-05;0.0;0.0;0.0;7.621289842063561e-05,3.999999975690116e-08;0.0;0.0;0.0;3.999999975690116e-08;0.0;0.0;0.0;3.999999975690116e-08
90,540000000,90.54,imu_link,-0.0024958674894489507,-0.010247341431805747,-0.015736187372749066,3.373469094809637e-05,-0.00013268185992619497,9.799621712332005,-4.61557079371595e-10,5.3304847850437015e-08,-4.989105560561311e-08,0.9999999999999973,0.0;0.0;0.0;0.0;0.0;0.0;0.0;0.0;0.0,7.621289842063561e-05;0.0;0.0;0.0;7.621289842063561e-05;0.0;0.0;0.0;7.621289842063561e-05,3.999999975690116e-08;0.0;0.0;0.0;3.999999975690116e-08;0.0;0.0;0.0;3.999999975690116e-08
90,560000000,90.56,imu_link,0.009034500658210218,-0.0004500853109535241,0.004040306301796729,-0.0004913659598934325,-0.0003245744363418503,9.799893545679923,-4.615570796144463e-10,5.330484785064541e-08,-4.989105560561506e-08,0.9999999999999973,0.0;0.0;0.0;0.0;0.0;0.0;0.0;0.0;0.0,7.621289842063561e-05;0.0;0.0;0.0;7.621289842063561e-05;0.0;0.0;0.0;7.621289842063561e-05,3.999999975690116e-08;0.0;0.0;0.0;3.999999975690116e-08;0.0;0.0;0.0;3.999999975690116e-08
90,580000000,90.58,imu_link,-0.0078069970887852825,-0.0022522803482063064,-0.006059121444267849,-0.0001918236116027722,-0.00031552426347617227,9.800167294220161,-4.6155707939449374e-10,5.330484785075462e-08,-4.9891055605614324e-08,0.9999999999999973,0.0;0.0;0.0;0.0;0.0;0.0;0.0;0.0;0.0,7.621289842063561e-05;0.0;0.0;0.0;7.621289842063561e-05;0.0;0.0;0.0;7.621289842063561e-05,3.999999975690116e-08;0.0;0.0;0.0;3.999999975690116e-08;0.0;0.0;0.0;3.999999975690116e-08
90,600000000,90.6,imu_link,-0.009331965561537266,7.955506061045999e-05,-0.01729748991168408,-7.714479496722262e-05,-0.00042903540627479866,9.799439915035633,-4.615570794457343e-10,5.3304847850257913e-08,-4.9891055605615025e-08,0.9999999999999973,0.0;0.0;0.0;0.0;0.0;0.0;0.0;0.0;0.0,7.621289842063561e-05;0.0;0.0;0.0;7.621289842063561e-05;0.0;0.0;0.0;7.621289842063561e-05,3.999999975690116e-08;0.0;0.0;0.0;3.999999975690116e-08;0.0;0.0;0.0;3.999999975690116e-08
90,620000000,90.62,imu_link,-0.004243472620041655,0.00020515564518509458,0.014911219515432828,-9.610997994235599e-05,-0.00021103282401995085,9.800080679839915,-4.6155707942055096e-10,5.3304847850595085e-08,-4.989105560561769e-08,0.9999999999999973,0.0;0.0;0.0;0.0;0.0;0.0;0.0;0.0;0.0,7.621289842063561e-05;0.0;0.0;0.0;7.621289842063561e-05;0.0;0.0;0.0;7.621289842063561e-05,3.999999975690116e-08;0.0;0.0;0.0;3.999999975690116e-08;0.0;0.0;0.0;3.999999975690116e-08
90,640000000,90.64,imu_link,-0.009759086662290677,-0.0030701075297891725,0.004767025694982339,-0.00024522438503253813,-0.0001971798355760474,9.800111676307125,-4.615570795805356e-10,5.330484785074028e-08,-4.9891055605618334e-08,0.9999999999999973,0.0;0.0;0.0;0.0;0.0;0.0;0.0;0.0;0.0,7.621289842063561e-05;0.0;0.0;0.0;7.621289842063561e-05;0.0;0.0;0.0;7.621289842063561e-05,3.999999975690116e-08;0.0;0.0;0.0;3.999999975690116e-08;0.0;0.0;0.0;3.999999975690116e-08
90,660000000,90.66,imu_link,0.019881673354462562,-0.016722602736728973,-0.0028545127535207103,-7.227844090590258e-05,-0.00014965634952257496,9.799883536005858,-4.615570793550467e-10,5.330484785084657e-08,-4.989105560561875e-08,0.9999999999999973,0.0;0.0;0.0;0.0;0.0;0.0;0.0;0.0;0.0,7.621289842063561e-05;0.0;0.0;0.0;7.621289842063561e-05;0.0;0.0;0.0;7.621289842063561e-05,3.999999975690116e-08;0.0;0.0;0.0;3.999999975690116e-08;0.0;0.0;0.0;3.999999975690116e-08
90,680000000,90.68,imu_link,-0.0036209218168084104,-0.004398506586627134,0.002404527854820422,-0.00021418548956160364,0.00012304391920251416,9.799503377189453,-4.615570795993169e-10,5.3304847850466846e-08,-4.989105560561934e-08,0.9999999999999973,0.0;0.0;0.0;0.0;0.0;0.0;0.0;0.0;0.0,7.621289842063561e-05;0.0;0.0;0.0;7.621289842063561e-05;0.0;0.0;0.0;7.621289842063561e-05,3.999999975690116e-08;0.0;0.0;0.0;3.999999975690116e-08;0.0;0.0;0.0;3.999999975690116e-08
90,700000000,90.7,imu_link,0.002815385463603011,0.007016326524007483,0.013297575276855026,-0.00036480469190583844,-0.00014076820714143605,9.799914730921232,-4.6155707951418424e-10,5.330484785056709e-08,-4.9891055605618215e-08,0.9999999999999973,0.0;0.0;0.0;0.0;0.0;0.0;0.0;0.0;0.0,7.621289842063561e-05;0.0;0.0;0.0;7.621289842063561e-05;0.0;0.0;0.0;7.621289842063561e-05,3.999999975690116e-08;0.0;0.0;0.0;3.999999975690116e-08;0.0;0.0;0.0;3.999999975690116e-08
90,720000000,90.72,imu_link,-0.010335728286382401,0.013659874710175593,-0.004698666508017624,0.00010819736941684134,-0.000364028813247044,9.7995020675305,-4.615570795223758e-10,5.330484785025483e-08,-4.9891055605618334e-08,0.9999999999999973,0.0;0.0;0.0;0.0;0.0;0.0;0.0;0.0;0.0,7.621289842063561e-05;0.0;0.0;0.0;7.621289842063561e-05;0.0;0.0;0.0;7.621289842063561e-05,3.999999975690116e-08;0.0;0.0;0.0;3.999999975690116e-08;0.0;0.0;0.0;3.999999975690116e-08
90,740000000,90.74,imu_link,-0.0023250300977215896,0.0022259151426327873,-0.002890244251823614,-0.0001681004860688841,-0.00021288040395333143,9.799875896744526,-4.615570794211769e-10,5.330484785035816e-08,-4.9891055605617355e-08,0.9999999999999973,0.0;0.0;0.0;0.0;0.0;0.0;0.0;0.0;0.0,7.621289842063561e-05;0.0;0.0;0.0;7.621289842063561e-05;0.0;0.0;0.0;7.621289842063561e-05,3.999999975690116e-08;0.0;0.0;0.0;3.999999975690116e-08;0.0;0.0;0.0;3.999999975690116e-08
90,760000000,90.76,imu_link,0.0011237072007682532,0.0037331148225789616,0.006455292673226746,-0.0001683063788320517,-8.16355106388243e-05,9.800048982360694,-4.615570793960865e-10,5.330484785057721e-08,-4.989105560561858e-08,0.9999999999999973,0.0;0.0;0.0;0.0;0.0;0.0;0.0;0.0;0.0,7.621289842063561e-05;0.0;0.0;0.0;7.621289842063561e-05;0.0;0.0;0.0;7.621289842063561e-05,3.999999975690116e-08;0.0;0.0;0.0;3.999999975690116e-08;0.0;0.0;0.0;3.999999975690116e-08
90,780000000,90.78,imu_link,0.012793740757613806,-0.01381511670675406,-0.012611940595931402,6.780047549108055e-05,0.00020686153377969245,9.799948385757949,-4.6155707954113513e-10,5.330484785025709e-08,-4.989105560561939e-08,0.9999999999999973,0.0;0.0;0.0;0.0;0.0;0.0;0.0;0.0;0.0,7.621289842063561e-05;0.0;0.0;0.0;7.621289842063561e-05;0.0;0.0;0.0;7.621289842063561e-05,3.999999975690116e-08;0.0;0.0;0.0;3.999999975690116e-08;0.0;0.0;0.0;3.999999975690116e-08
90,800000000,90.8,imu_link,0.0004379944811860851,0.0025159312888712038,0.003904601158619646,-0.00013321478636351826,-0.00013820243511578618,9.799971077378029,-4.6155707955170665e-10,5.330484785042046e-08,-4.9891055605618506e-08,0.9999999999999973,0.0;0.0;0.0;0.0;0.0;0.0;0.0;0.0;0.0,7.621289842063561e-05;0.0;0.0;0.0;7.621289842063561e-05;0.0;0.0;0.0;7.621289842063561e-05,3.999999975690116e-08;0.0;0.0;0.0;3.999999975690116e-08;0.0;0.0;0.0;3.999999975690116e-08
90,820000000,90.82,imu_link,-0.004977104677438093,-0.003935938772398129,-0.009592931304201496,6.264964908702386e-05,-2.1404890426791992e-05,9.799614972854853,-4.6155707956642654e-10,5.330484785057656e-08,-4.98910556056168e-08,0.9999999999999973,0.0;0.0;0.0;0.0;0.0;0.0;0.0;0.0;0.0,7.621289842063561e-05;0.0;0.0;0.0;7.621289842063561e-05;0.0;0.0;0.0;7.621289842063561e-05,3.999999975690116e-08;0.0;0.0;0.0;3.999999975690116e-08;0.0;0.0;0.0;3.999999975690116e-08
90,840000000,90.84,imu_link,0.009743491729833133,0.008695289196038932,0.017379103846868024,5.7610070902024485e-05,0.00018987539187073816,9.799885471325583,-4.615570794186817e-10,5.3304847850732166e-08,-4.9891055605616905e-08,0.9999999999999973,0.0;0.0;0.0;0.0;0.0;0.0;0.0;0.0;0.0,7.621289842063561e-05;0.0;0.0;0.0;7.621289842063561e-05;0.0;0.0;0.0;7.621289842063561e-05,3.999999975690116e-08;0.0;0.0;0.0;3.999999975690116e-08;0.0;0.0;0.0;3.999999975690116e-08
90,860000000,90.86,imu_link,-0.004253638224679234,-0.008954774110306152,-0.005697267113637122,-0.0002938211797147662,-0.0003601930762593986,9.79997591385927,-4.6155707954377125e-10,5.3304847850411736e-08,-4.9891055605619036e-08,0.9999999999999973,0.0;0.0;0.0;0.0;0.0;0.0;0.0;0.0;0.0,7.621289842063561e-05;0.0;0.0;0.0;7.621289842063561e-05;0.0;0.0;0.0;7.621289842063561e-05,3.999999975690116e-08;0.0;0.0;0.0;3.999999975690116e-08;0.0;0.0;0.0;3.999999975690116e-08
90,880000000,90.88,imu_link,0.004344376417900618,0.011360841085712982,0.007333323761877429,-0.0006731094622262479,-0.00022448632318411177,9.799949355953945,-4.615570795619192e-10,5.3304847850565684e-08,-4.989105560562101e-08,0.9999999999999973,0.0;0.0;0.0;0.0;0.0;0.0;0.0;0.0;0.0,7.621289842063561e-05;0.0;0.0;0.0;7.621289842063561e-05;0.0;0.0;0.0;7.621289842063561e-05,3.999999975690116e-08;0.0;0.0;0.0;3.999999975690116e-08;0.0;0.0;0.0;3.999999975690116e-08
90,900000000,90.9,imu_link,0.0007774556695781791,-0.007581024069346427,-0.011104836198613964,-0.00017766843167947973,0.00013336623749005984,9.799941192396128,-4.6155707959015096e-10,5.3304847850727315e-08,-4.989105560562222e-08,0.9999999999999973,0.0;0.0;0.0;0.0;0.0;0.0;0.0;0.0;0.0,7.621289842063561e-05;0.0;0.0;0.0;7.621289842063561e-05;0.0;0.0;0.0;7.621289842063561e-05,3.999999975690116e-08;0.0;0.0;0.0;3.999999975690116e-08;0.0;0.0;0.0;3.999999975690116e-08
90,920000000,90.92,imu_link,-0.005439961339644808,0.0020439382191237998,0.0016903353176712232,-6.920052108486971e-05,-0.00035539423955633807,9.800147921853098,-4.6155707959313997e-10,5.3304847850412676e-08,-4.98910556056236e-08,0.9999999999999973,0.0;0.0;0.0;0.0;0.0;0.0;0.0;0.0;0.0,7.621289842063561e-05;0.0;0.0;0.0;7.621289842063561e-05;0.0;0.0;0.0;7.621289842063561e-05,3.999999975690116e-08;0.0;0.0;0.0;3.999999975690116e-08;0.0;0.0;0.0;3.999999975690116e-08
90,940000000,90.94,imu_link,0.001028941978392407,0.01004144105216024,-0.011101342529216879,5.46604097895212e-05,4.942875617360496e-05,9.799733736598334,-4.615570796067355e-10,5.3304847850561317e-08,-4.989105560562534e-08,0.9999999999999973,0.0;0.0;0.0;0.0;0.0;0.0;0.0;0.0;0.0,7.621289842063561e-05;0.0;0.0;0.0;7.621289842063561e-05;0.0;0.0;0.0;7.621289842063561e-05,3.999999975690116e-08;0.0;0.0;0.0;3.999999975690116e-08;0.0;0.0;0.0;3.999999975690116e-08
90,960000000,90.96,imu_link,0.004457337143402611,0.017256941538501817,-0.013909281490723817,-0.00018513353823725864,0.0003600831367616373,9.800051431601627,-4.615570795347125e-10,5.330484785066041e-08,-4.989105560562657e-08,0.9999999999999973,0.0;0.0;0.0;0.0;0.0;0.0;0.0;0.0;0.0,7.621289842063561e-05;0.0;0.0;0.0;7.621289842063561e-05;0.0;0.0;0.0;7.621289842063561e-05,3.999999975690116e-08;0.0;0.0;0.0;3.999999975690116e-08;0.0;0.0;0.0;3.999999975690116e-08
90,980000000,90.98,imu_link,-0.0028312952282576634,0.01463244855818806,-0.003699260979973613,-0.0005351705432153418,-0.00015704431208001925,9.799907453028167,-4.6155707952915026e-10,5.330484785035549e-08,-4.989105560562697e-08,0.9999999999999973,0.0;0.0;0.0;0.0;0.0;0.0;0.0;0.0;0.0,7.621289842063561e-05;0.0;0.0;0.0;7.621289842063561e-05;0.0;0.0;0.0;7.621289842063561e-05,3.999999975690116e-08;0.0;0.0;0.0;3.999999975690116e-08;0.0;0.0;0.0;3.999999975690116e-08
91,0,91.0,imu_link,-0.011255655945272175,0.001188595791722287,-0.007718484040736351,-0.0005252076879749544,-0.0002126805538532097,9.799768177528529,-4.6155707954137325e-10,5.330484785050972e-08,-4.989105560562896e-08,0.9999999999999973,0.0;0.0;0.0;0.0;0.0;0.0;0.0;0.0;0.0,7.621289842063561e-05;0.0;0.0;0.0;7.621289842063561e-05;0.0;0.0;0.0;7.621289842063561e-05,3.999999975690116e-08;0.0;0.0;0.0;3.999999975690116e-08;0.0;0.0;0.0;3.999999975690116e-08
91,20000000,91.02,imu_link,0.012625032030106184,0.001959382126227788,-0.009100252333592736,-0.0005018252537215251,-0.00021658093390379538,9.79967488466799,-4.615570795544936e-10,5.3304847850661286e-08,-4.9891055605630464e-08,0.9999999999999973,0.0;0.0;0.0;0.0;0.0;0.0;0.0;0.0;0.0,7.621289842063561e-05;0.0;0.0;0.0;7.621289842063561e-05;0.0;0.0;0.0;7.621289842063561e-05,3.999999975690116e-08;0.0;0.0;0.0;3.999999975690116e-08;0.0;0.0;0.0;3.999999975690116e-08
91,40000000,91.04,imu_link,-0.009354748988532318,-0.0030857303851774486,-7.345651114552301e-05,-1.56795377927471e-06,3.796760462476445e-05,9.799960954972823,-4.6155707957085816e-10,5.330484785034849e-08,-4.9891055605631026e-08,0.9999999999999973,0.0;0.0;0.0;0.0;0.0;0.0;0.0;0.0;0.0,7.621289842063561e-05;0.0;0.0;0.0;7.621289842063561e-05;0.0;0.0;0.0;7.621289842063561e-05,3.999999975690116e-08;0.0;0.0;0.0;3.999999975690116e-08;0.0;0.0;0.0;3.999999975690116e-08
91,60000000,91.06,imu_link,-0.007959932222057644,0.006084535464986611,0.003453577308358806,9.143633265194204e-05,-0.00013213280282810272,9.799559266264765,-4.615570795931013e-10,5.3304847850502276e-08,-4.989105560563131e-08,0.9999999999999973,0.0;0.0;0.0;0.0;0.0;0.0;0.0;0.0;0.0,7.621289842063561e-05;0.0;0.0;0.0;7.621289842063561e-05;0.0;0.0;0.0;7.621289842063561e-05,3.999999975690116e-08;0.0;0.0;0.0;3.999999975690116e-08;0.0;0.0;0.0;3.999999975690116e-08
91,80000000,91.08,imu_link,-0.0005720274698502385,0.002775412151133649,-0.022749837544534936,-0.00014802594983675076,2.653042632574541e-05,9.800179511960895,-4.615570796022795e-10,5.3304847850652075e-08,-4.989105560563286e-08,0.9999999999999973,0.0;0.0;0.0;0.0;0.0;0.0;0.0;0.0;0.0,7.621289842063561e-05;0.0;0.0;0.0;7.621289842063561e-05;0.0;0.0;0.0;7.621289842063561e-05,3.999999975690116e-08;0.0;0.0;0.0;3.999999975690116e-08;0.0;0.0;0.0;3.999999975690116e-08
91,100000000,91.1,imu_link,-0.0010142658868390816,-0.011423968090413425,-0.0030560840146547515,-8.040227611755708e-06,0.0003032211014033958,9.79987441388527,-4.615570796044652e-10,5.33048478503308e-08,-4.9891055605633634e-08,0.9999999999999973,0.0;0.0;0.0;0.0;0.0;0.0;0.0;0.0;0.0,7.621289842063561e-05;0.0;0.0;0.0;7.621289842063561e-05;0.0;0.0;0.0;7.621289842063561e-05,3.999999975690116e-08;0.0;0.0;0.0;3.999999975690116e-08;0.0;0.0;0.0;3.999999975690116e-08
91,120000000,91.12,imu_link,-0.007820578900296008,0.0019265110075484724,-0.002734445798563439,7.091438635643768e-05,-1.5798530206480513e-05,9.799827605469478,-4.615570793652584e-10,5.330484785042816e-08,-4.98910556056336e-08,0.9999999999999973,0.0;0.0;0.0;0.0;0.0;0.0;0.0;0.0;0.0,7.621289842063561e-05;0.0;0.0;0.0;7.621289842063561e-05;0.0;0.0;0.0;7.621289842063561e-05,3.999999975690116e-08;0.0;0.0;0.0;3.999999975690116e-08;0.0;0.0;0.0;3.999999975690116e-08
91,140000000,91.14,imu_link,-0.010028031799128012,-0.014736130306727744,-0.003167008288566457,3.560183252505183e-05,-0.00018771531390367524,9.80007954957803,-4.6155707937738506e-10,5.3304847850573764e-08,-4.989105560563359e-08,0.9999999999999973,0.0;0.0;0.0;0.0;0.0;0.0;0.0;0.0;0.0,7.621289842063561e-05;0.0;0.0;0.0;7.621289842063561e-05;0.0;0.0;0.0;7.621289842063561e-05,3.999999975690116e-08;0.0;0.0;0.0;3.999999975690116e-08;0.0;0.0;0.0;3.999999975690116e-08
91,160000000,91.16,imu_link,0.001301790528360343,-0.0022467157328676557,0.002915443604872802,-9.976096801569877e-05,-0.00017406001260689716,9.799821416504413,-4.6155707950159067e-10,5.330484785025137e-08,-4.989105560563149e-08,0.9999999999999973,0.0;0.0;0.0;0.0;0.0;0.0;0.0;0.0;0.0,7.621289842063561e-05;0.0;0.0;0.0;7.621289842063561e-05;0.0;0.0;0.0;7.621289842063561e-05,3.999999975690116e-08;0.0;0.0;0.0;3.999999975690116e-08;0.0;0.0;0.0;3.999999975690116e-08
91,180000000,91.18,imu_link,0.012253505002893529,0.00259320404300186,0.02007284763288691,6.645443655880885e-05,-8.901191184260639e-05,9.799835914844653,-4.615570795004713e-10,5.330484785026973e-08,-4.989105560563109e-08,0.9999999999999973,0.0;0.0;0.0;0.0;0.0;0.0;0.0;0.0;0.0,7.621289842063561e-05;0.0;0.0;0.0;7.621289842063561e-05;0.0;0.0;0.0;7.621289842063561e-05,3.999999975690116e-08;0.0;0.0;0.0;3.999999975690116e-08;0.0;0.0;0.0;3.999999975690116e-08
91,200000000,91.2,imu_link,-0.010379033389619192,-0.00429762351282469,-0.0108406803268504,-0.00019572793240767015,0.0002263968358437058,9.799930101980351,-4.615570795940353e-10,5.3304847850591386e-08,-4.989105560563039e-08,0.9999999999999973,0.0;0.0;0.0;0.0;0.0;0.0;0.0;0.0;0.0,7.621289842063561e-05;0.0;0.0;0.0;7.621289842063561e-05;0.0;0.0;0.0;7.621289842063561e-05,3.999999975690116e-08;0.0;0.0;0.0;3.999999975690116e-08;0.0;0.0;0.0;3.999999975690116e-08
91,220000000,91.22,imu_link,-0.00507593679087458,0.0014942310835845925,-0.004532214185946785,-3.185449977980554e-05,-0.0002801965472570308,9.800401104914837,-4.6155707960665517e-10,5.33048478507408e-08,-4.989105560562892e-08,0.9999999999999973,0.0;0.0;0.0;0.0;0.0;0.0;0.0;0.0;0.0,7.621289842063561e-05;0.0;0.0;0.0;7.621289842063561e-05;0.0;0.0;0.0;7.621289842063561e-05,3.999999975690116e-08;0.0;0.0;0.0;3.999999975690116e-08;0.0;0.0;0.0;3.999999975690116e-08
91,240000000,91.24,imu_link,-0.007811780800927789,-0.00246607446912111,-0.009935603581657926,0.00029568828452317304,-0.0003230746986626448,9.799697997045154,-4.615570793644563e-10,5.330484785037859e-08,-4.989105560562685e-08,0.9999999999999973,0.0;0.0;0.0;0.0;0.0;0.0;0.0;0.0;0.0,7.621289842063561e-05;0.0;0.0;0.0;7.621289842063561e-05;0.0;0.0;0.0;7.621289842063561e-05,3.999999975690116e-08;0.0;0.0;0.0;3.999999975690116e-08;0.0;0.0;0.0;3.999999975690116e-08
91,260000000,91.26,imu_link,0.0027484846425772564,-0.013350273269602447,0.003499535008222027,0.00022482435407420842,3.1460995061496e-05,9.800153249373729,-4.6155707951362625e-10,5.330484785050785e-08,-4.989105560562602e-08,0.9999999999999973,0.0;0.0;0.0;0.0;0.0;0.0;0.0;0.0;0.0,7.621289842063561e-05;0.0;0.0;0.0;7.621289842063561e-05;0.0;0.0;0.0;7.621289842063561e-05,3.999999975690116e-08;0.0;0.0;0.0;3.999999975690116e-08;0.0;0.0;0.0;3.999999975690116e-08
91,280000000,91.28,imu_link,-0.016136547719012812,0.00638236587665043,-0.00611020157840255,-0.0001473765236632764,-1.756421424930689e-05,9.800315034384678,-4.61557079490753e-10,5.330484785072703e-08,-4.989105560562421e-08,0.9999999999999973,0.0;0.0;0.0;0.0;0.0;0.0;0.0;0.0;0.0,7.621289842063561e-05;0.0;0.0;0.0;7.621289842063561e-05;0.0;0.0;0.0;7.621289842063561e-05,3.999999975690116e-08;0.0;0.0;0.0;3.999999975690116e-08;0.0;0.0;0.0;3.999999975690116e-08
91,300000000,91.3,imu_link,0.02008059004960162,-0.00048673324829623854,-0.005198473589051985,-0.00025925277371047965,3.983777845511713e-05,9.799725866045149,-4.615570794868473e-10,5.3304847850875434e-08,-4.9891055605622616e-08,0.9999999999999973,0.0;0.0;0.0;0.0;0.0;0.0;0.0;0.0;0.0,7.621289842063561e-05;0.0;0.0;0.0;7.621289842063561e-05;0.0;0.0;0.0;7.621289842063561e-05,3.999999975690116e-08;0.0;0.0;0.0;3.999999975690116e-08;0.0;0.0;0.0;3.999999975690116e-08
91,320000000,91.32,imu_link,0.005523247697251029,-0.00488501039287226,-0.00017556908167391073,5.07740866898994e-05,-0.00022145297446534974,9.799776897462872,-4.615570795055812e-10,5.330484785048663e-08,-4.9891055605619783e-08,0.9999999999999973,0.0;0.0;0.0;0.0;0.0;0.0;0.0;0.0;0.0,7.621289842063561e-05;0.0;0.0;0.0;7.621289842063561e-05;0.0;0.0;0.0;7.621289842063561e-05,3.999999975690116e-08;0.0;0.0;0.0;3.999999975690116e-08;0.0;0.0;0.0;3.999999975690116e-08
91,340000000,91.34,imu_link,-0.004551907326155435,-0.007648653710945354,-0.006003075179241595,9.565163316857448e-05,-2.6162591842046262e-05,9.799837290984092,-4.6155707950988006e-10,5.330484785052254e-08,-4.989105560561854e-08,0.9999999999999973,0.0;0.0;0.0;0.0;0.0;0.0;0.0;0.0;0.0,7.621289842063561e-05;0.0;0.0;0.0;7.621289842063561e-05;0.0;0.0;0.0;7.621289842063561e-05,3.999999975690116e-08;0.0;0.0;0.0;3.999999975690116e-08;0.0;0.0;0.0;3.999999975690116e-08
91,360000000,91.36,imu_link,0.009917755290706456,0.02129231292976266,-0.008624463239415642,-0.00026349590427036094,-0.000278104315472632,9.799716830550722,-4.6155707935931183e-10,5.3304847850795554e-08,-4.9891055605616495e-08,0.9999999999999973,0.0;0.0;0.0;0.0;0.0;0.0;0.0;0.0;0.0,7.621289842063561e-05;0.0;0.0;0.0;7.621289842063561e-05;0.0;0.0;0.0;7.621289842063561e-05,3.999999975690116e-08;0.0;0.0;0.0;3.999999975690116e-08;0.0;0.0;0.0;3.999999975690116e-08
91,380000000,91.38,imu_link,0.006437119477020225,0.0019138997871430462,0.010162873802368407,-0.0001342190926412364,-0.00022472086483251425,9.80010263086406,-4.615570796006956e-10,5.3304847850522075e-08,-4.9891055605615396e-08,0.9999999999999973,0.0;0.0;0.0;0.0;0.0;0.0;0.0;0.0;0.0,7.621289842063561e-05;0.0;0.0;0.0;7.621289842063561e-05;0.0;0.0;0.0;7.621289842063561e-05,3.999999975690116e-08;0.0;0.0;0.0;3.999999975690116e-08;0.0;0.0;0.0;3.999999975690116e-08
91,400000000,91.4,imu_link,-0.0031030753460415846,-0.0040383689886390245,-0.0012127027037345478,-8.931607014273339e-05,8.195953316982587e-05,9.799911317386488,-4.6155707936158167e-10,5.330484785062039e-08,-4.989105560561348e-08,0.9999999999999973,0.0;0.0;0.0;0.0;0.0;0.0;0.0;0.0;0.0,7.621289842063561e-05;0.0;0.0;0.0;7.621289842063561e-05;0.0;0.0;0.0;7.621289842063561e-05,3.999999975690116e-08;0.0;0.0;0.0;3.999999975690116e-08;0.0;0.0;0.0;3.999999975690116e-08
91,420000000,91.42,imu_link,-0.009408059853905497,0.004972214461168207,-0.0012462490354518648,-0.00019072929302588307,-4.9369544144823365e-05,9.799943590227423,-4.6155707938155e-10,5.330484785077196e-08,-4.989105560561407e-08,0.9999999999999973,0.0;0.0;0.0;0.0;0.0;0.0;0.0;0.0;0.0,7.621289842063561e-05;0.0;0.0;0.0;7.621289842063561e-05;0.0;0.0;0.0;7.621289842063561e-05,3.999999975690116e-08;0.0;0.0;0.0;3.999999975690116e-08;0.0;0.0;0.0;3.999999975690116e-08
91,440000000,91.44,imu_link,-0.0045136040803705115,-0.0037207970315005193,-0.004003889724587516,5.297533947571905e-05,-7.454911488960738e-05,9.799713427090053,-4.615570793897925e-10,5.330484785044938e-08,-4.989105560561282e-08,0.9999999999999973,0.0;0.0;0.0;0.0;0.0;0.0;0.0;0.0;0.0,7.621289842063561e-05;0.0;0.0;0.0;7.621289842063561e-05;0.0;0.0;0.0;7.621289842063561e-05,3.999999975690116e-08;0.0;0.0;0.0;3.999999975690116e-08;0.0;0.0;0.0;3.999999975690116e-08
91,460000000,91.46,imu_link,0.0027474977811365454,0.004451171662701911,-0.0017851866767610405,-0.00023740012445294792,-4.303809917583981e-05,9.799621702553054,-4.6155707939224774e-10,5.330484785058752e-08,-4.989105560561145e-08,0.9999999999999973,0.0;0.0;0.0;0.0;0.0;0.0;0.0;0.0;0.0,7.621289842063561e-05;0.0;0.0;0.0;7.621289842063561e-05;0.0;0.0;0.0;7.621289842063561e-05,3.999999975690116e-08;0.0;0.0;0.0;3.999999975690116e-08;0.0;0.0;0.0;3.999999975690116e-08
91,480000000,91.48,imu_link,0.008464174310490746,0.009963176522167733,0.00866944337091024,-7.978059554598264e-05,-0.00017230116710054908,9.799561861178539,-4.615570794164542e-10,5.330484785073949e-08,-4.9891055605610804e-08,0.9999999999999973,0.0;0.0;0.0;0.0;0.0;0.0;0.0;0.0;0.0,7.621289842063561e-05;0.0;0.0;0.0;7.621289842063561e-05;0.0;0.0;0.0;7.621289842063561e-05,3.999999975690116e-08;0.0;0.0;0.0;3.999999975690116e-08;0.0;0.0;0.0;3.999999975690116e-08
91,500000000,91.5,imu_link,-0.008456479548016904,0.0011799062659704205,0.002648057595308192,-4.5998523446745254e-05,-2.7823930953171276e-05,9.799825130783363,-4.615570795692822e-10,5.330484785040323e-08,-4.989105560561215e-08,0.9999999999999973,0.0;0.0;0.0;0.0;0.0;0.0;0.0;0.0;0.0,7.621289842063561e-05;0.0;0.0;0.0;7.621289842063561e-05;0.0;0.0;0.0;7.621289842063561e-05,3.999999975690116e-08;0.0;0.0;0.0;3.999999975690116e-08;0.0;0.0;0.0;3.999999975690116e-08
91,520000000,91.52,imu_link,0.005377986915337996,-0.004205640589087342,0.014289949275608444,-0.0003101042105350768,-0.00026114127424168036,9.799722258478381,-4.615570794687961e-10,5.330484785048691e-08,-4.9891055605613695e-08,0.9999999999999973,0.0;0.0;0.0;0.0;0.0;0.0;0.0;0.0;0.0,7.621289842063561e-05;0.0;0.0;0.0;7.621289842063561e-05;0.0;0.0;0.0;7.621289842063561e-05,3.999999975690116e-08;0.0;0.0;0.0;3.999999975690116e-08;0.0;0.0;0.0;3.999999975690116e-08
91,540000000,91.54,imu_link,0.0008792523819257626,0.025701929762887876,-0.005759443684431913,0.00014713607401593053,1.5287030251624357e-05,9.799985575093652,-4.615570794413825e-10,5.330484785070256e-08,-4.989105560561381e-08,0.9999999999999973,0.0;0.0;0.0;0.0;0.0;0.0;0.0;0.0;0.0,7.621289842063561e-05;0.0;0.0;0.0;7.621289842063561e-05;0.0;0.0;0.0;7.621289842063561e-05,3.999999975690116e-08;0.0;0.0;0.0;3.999999975690116e-08;0.0;0.0;0.0;3.999999975690116e-08
91,560000000,91.56,imu_link,-0.005952146543860031,-0.005402975620981708,-0.0025804530466193645,0.00031662005202756735,0.00019060114985940544,9.799739118314138,-4.6155707945339737e-10,5.330484785038642e-08,-4.9891055605614324e-08,0.9999999999999973,0.0;0.0;0.0;0.0;0.0;0.0;0.0;0.0;0.0,7.621289842063561e-05;0.0;0.0;0.0;7.621289842063561e-05;0.0;0.0;0.0;7.621289842063561e-05,3.999999975690116e-08;0.0;0.0;0.0;3.999999975690116e-08;0.0;0.0;0.0;3.999999975690116e-08
91,580000000,91.58,imu_link,-0.00013228815170246064,-0.0043483800372288535,0.01010077601592933,2.2461284090490228e-05,-4.04862390207868e-05,9.799939469014921,-4.615570796082552e-10,5.330484785052773e-08,-4.989105560561586e-08,0.9999999999999973,0.0;0.0;0.0;0.0;0.0;0.0;0.0;0.0;0.0,7.621289842063561e-05;0.0;0.0;0.0;7.621289842063561e-05;0.0;0.0;0.0;7.621289842063561e-05,3.999999975690116e-08;0.0;0.0;0.0;3.999999975690116e-08;0.0;0.0;0.0;3.999999975690116e-08
91,600000000,91.6,imu_link,0.005528549118538312,0.002731940413558951,0.004610918566178716,5.7923264452202156e-05,0.00014156113504581094,9.79984130817673,-4.61557079513267e-10,5.330484785049986e-08,-4.9891055605615806e-08,0.9999999999999973,0.0;0.0;0.0;0.0;0.0;0.0;0.0;0.0;0.0,7.621289842063561e-05;0.0;0.0;0.0;7.621289842063561e-05;0.0;0.0;0.0;7.621289842063561e-05,3.999999975690116e-08;0.0;0.0;0.0;3.999999975690116e-08;0.0;0.0;0.0;3.999999975690116e-08
91,620000000,91.62,imu_link,-0.006982929043735184,-0.004574344254301973,-0.00034275944040511276,-6.221224814669574e-05,-0.0003413594338800028,9.79989953686842,-4.615570793670022e-10,5.3304847850780414e-08,-4.989105560561501e-08,0.9999999999999973,0.0;0.0;0.0;0.0;0.0;0.0;0.0;0.0;0.0,7.621289842063561e-05;0.0;0.0;0.0;7.621289842063561e-05;0.0;0.0;0.0;7.621289842063561e-05,3.999999975690116e-08;0.0;0.0;0.0;3.999999975690116e-08;0.0;0.0;0.0;3.999999975690116e-08
91,640000000,91.64,imu_link,0.003865086623264914,0.01446557055020249,0.01937313794345251,-0.00031129375002154956,7.399959150887887e-05,9.799812899592919,-4.6155707936915e-10,5.330484785044962e-08,-4.989105560561414e-08,0.9999999999999973,0.0;0.0;0.0;0.0;0.0;0.0;0.0;0.0;0.0,7.621289842063561e-05;0.0;0.0;0.0;7.621289842063561e-05;0.0;0.0;0.0;7.621289842063561e-05,3.999999975690116e-08;0.0;0.0;0.0;3.999999975690116e-08;0.0;0.0;0.0;3.999999975690116e-08
91,660000000,91.66,imu_link,-0.00825205067084165,0.0023192632170729744,0.004239485945835663,-0.0004883868005091139,-0.0001399653947836189,9.799726323250148,-4.6155707936354927e-10,5.3304847850588825e-08,-4.98910556056125e-08,0.9999999999999973,0.0;0.0;0.0;0.0;0.0;0.0;0.0;0.0;0.0,7.621289842063561e-05;0.0;0.0;0.0;7.621289842063561e-05;0.0;0.0;0.0;7.621289842063561e-05,3.999999975690116e-08;0.0;0.0;0.0;3.999999975690116e-08;0.0;0.0;0.0;3.999999975690116e-08
91,680000000,91.68,imu_link,-0.009154251244245501,-0.009350746344037602,-0.0022489076678626966,-0.0005663619962457498,-3.596661284482971e-05,9.799808292421416,-4.6155707936506777e-10,5.330484785073623e-08,-4.989105560561247e-08,0.9999999999999973,0.0;0.0;0.0;0.0;0.0;0.0;0.0;0.0;0.0,7.621289842063561e-05;0.0;0.0;0.0;7.621289842063561e-05;0.0;0.0;0.0;7.621289842063561e-05,3.999999975690116e-08;0.0;0.0;0.0;3.999999975690116e-08;0.0;0.0;0.0;3.999999975690116e-08
91,700000000,91.7,imu_link,-0.004415308654167134,0.020195763593231664,0.0006756954750758046,0.0001713402767888411,6.269964669375363e-06,9.800051184995677,-4.6155707936118943e-10,5.3304847850878755e-08,-4.989105560561197e-08,0.9999999999999973,0.0;0.0;0.0;0.0;0.0;0.0;0.0;0.0;0.0,7.621289842063561e-05;0.0;0.0;0.0;7.621289842063561e-05;0.0;0.0;0.0;7.621289842063561e-05,3.999999975690116e-08;0.0;0.0;0.0;3.999999975690116e-08;0.0;0.0;0.0;3.999999975690116e-08
91,720000000,91.72,imu_link,0.008702307115181749,-0.005215212193499297,-0.009917716881181857,-0.00013729104408680335,-0.0005150763545650117,9.800133535231643,-4.6155707959093393e-10,5.330484785061878e-08,-4.9891055605611445e-08,0.9999999999999973,0.0;0.0;0.0;0.0;0.0;0.0;0.0;0.0;0.0,7.621289842063561e-05;0.0;0.0;0.0;7.621289842063561e-05;0.0;0.0;0.0;7.621289842063561e-05,3.999999975690116e-08;0.0;0.0;0.0;3.999999975690116e-08;0.0;0.0;0.0;3.999999975690116e-08
91,740000000,91.74,imu_link,0.002833995924268147,-0.003466257203590957,-0.003438025787163432,0.00012309883384687274,0.0001435383903846536,9.800243762261658,-4.615570794988297e-10,5.330484785071258e-08,-4.9891055605610976e-08,0.9999999999999973,0.0;0.0;0.0;0.0;0.0;0.0;0.0;0.0;0.0,7.621289842063561e-05;0.0;0.0;0.0;7.621289842063561e-05;0.0;0.0;0.0;7.621289842063561e-05,3.999999975690116e-08;0.0;0.0;0.0;3.999999975690116e-08;0.0;0.0;0.0;3.999999975690116e-08
91,760000000,91.76,imu_link,0.00828156386804932,-0.0012145351998236102,0.02354359061806001,-0.00028399734512003604,-0.0004594600121953596,9.799949352396755,-4.6155707939915743e-10,5.3304847850330547e-08,-4.989105560561067e-08,0.9999999999999973,0.0;0.0;0.0;0.0;0.0;0.0;0.0;0.0;0.0,7.621289842063561e-05;0.0;0.0;0.0;7.621289842063561e-05;0.0;0.0;0.0;7.621289842063561e-05,3.999999975690116e-08;0.0;0.0;0.0;3.999999975690116e-08;0.0;0.0;0.0;3.999999975690116e-08
91,780000000,91.78,imu_link,-0.005262140054520211,0.01002663439199483,-0.00876554435112657,7.882254240231199e-05,9.782589463689421e-05,9.79971212280822,-4.6155707954760585e-10,5.330484785045778e-08,-4.9891055605611565e-08,0.9999999999999973,0.0;0.0;0.0;0.0;0.0;0.0;0.0;0.0;0.0,7.621289842063561e-05;0.0;0.0;0.0;7.621289842063561e-05;0.0;0.0;0.0;7.621289842063561e-05,3.999999975690116e-08;0.0;0.0;0.0;3.999999975690116e-08;0.0;0.0;0.0;3.999999975690116e-08
91,800000000,91.8,imu_link,0.006971064462896903,0.008103591319643968,-0.0006365281502373317,0.00010045951619483862,-0.00021169410034607838,9.79984384097732,-4.615570795615465e-10,5.330484785060856e-08,-4.989105560561213e-08,0.9999999999999973,0.0;0.0;0.0;0.0;0.0;0.0;0.0;0.0;0.0,7.621289842063561e-05;0.0;0.0;0.0;7.621289842063561e-05;0.0;0.0;0.0;7.621289842063561e-05,3.999999975690116e-08;0.0;0.0;0.0;3.999999975690116e-08;0.0;0.0;0.0;3.999999975690116e-08
91,820000000,91.82,imu_link,-0.0041168995094926835,-0.007159245465509764,-0.011144330695470448,0.00017994004473270592,7.455137569917073e-05,9.799857878994823,-4.6155707954519105e-10,5.330484785087439e-08,-4.989105560561243e-08,0.9999999999999973,0.0;0.0;0.0;0.0;0.0;0.0;0.0;0.0;0.0,7.621289842063561e-05;0.0;0.0;0.0;7.621289842063561e-05;0.0;0.0;0.0;7.621289842063561e-05,3.999999975690116e-08;0.0;0.0;0.0;3.999999975690116e-08;0.0;0.0;0.0;3.999999975690116e-08
91,840000000,91.84,imu_link,0.008999295411479166,-0.008952002317408449,-0.0030023614878814946,-0.00017086052389173132,0.00011334482095499629,9.79997488679512,-4.615570795405757e-10,5.330484785055922e-08,-4.9891055605612306e-08,0.9999999999999973,0.0;0.0;0.0;0.0;0.0;0.0;0.0;0.0;0.0,7.621289842063561e-05;0.0;0.0;0.0;7.621289842063561e-05;0.0;0.0;0.0;7.621289842063561e-05,3.999999975690116e-08;0.0;0.0;0.0;3.999999975690116e-08;0.0;0.0;0.0;3.999999975690116e-08
91,860000000,91.86,imu_link,-0.008330036251586055,0.008084471309594927,0.005311597741133843,-0.00011496989482785984,0.00023448797880836503,9.799679817339067,-4.6155707953973626e-10,5.3304847850596105e-08,-4.989105560561277e-08,0.9999999999999973,0.0;0.0;0.0;0.0;0.0;0.0;0.0;0.0;0.0,7.621289842063561e-05;0.0;0.0;0.0;7.621289842063561e-05;0.0;0.0;0.0;7.621289842063561e-05,3.999999975690116e-08;0.0;0.0;0.0;3.999999975690116e-08;0.0;0.0;0.0;3.999999975690116e-08
91,880000000,91.88,imu_link,0.008217891457802318,0.003929069595912225,-0.001962792859383656,-0.00016862322812167738,0.00013011713306027223,9.800343298256582,-4.6155707966645956e-10,5.33048478507498e-08,-4.9891055605612895e-08,0.9999999999999973,0.0;0.0;0.0;0.0;0.0;0.0;0.0;0.0;0.0,7.621289842063561e-05;0.0;0.0;0.0;7.621289842063561e-05;0.0;0.0;0.0;7.621289842063561e-05,3.999999975690116e-08;0.0;0.0;0.0;3.999999975690116e-08;0.0;0.0;0.0;3.999999975690116e-08
91,900000000,91.9,imu_link,0.0064503795667697405,-0.01707755647299978,0.00238484743466679,-0.00021101821724588143,-4.10926276878703e-05,9.79978004108834,-4.6155707943483477e-10,5.330484785031403e-08,-4.989105560561317e-08,0.9999999999999973,0.0;0.0;0.0;0.0;0.0;0.0;0.0;0.0;0.0,7.621289842063561e-05;0.0;0.0;0.0;7.621289842063561e-05;0.0;0.0;0.0;7.621289842063561e-05,3.999999975690116e-08;0.0;0.0;0.0;3.999999975690116e-08;0.0;0.0;0.0;3.999999975690116e-08
91,920000000,91.92,imu_link,0.01465111875570391,-0.005867891074362291,-0.0007482303687782264,-6.2333575866954e-05,-0.0003171381884055446,9.79990959519008,-4.615570794353198e-10,5.330484785046689e-08,-4.9891055605613894e-08,0.9999999999999973,0.0;0.0;0.0;0.0;0.0;0.0;0.0;0.0;0.0,7.621289842063561e-05;0.0;0.0;0.0;7.621289842063561e-05;0.0;0.0;0.0;7.621289842063561e-05,3.999999975690116e-08;0.0;0.0;0.0;3.999999975690116e-08;0.0;0.0;0.0;3.999999975690116e-08
91,940000000,91.94,imu_link,0.017033711108391327,-0.012827849320894322,-0.005798781951586149,-0.000540848387045543,-0.0001495362822675393,9.79976231031583,-4.615570796713773e-10,5.330484785078338e-08,-4.98910556056148e-08,0.9999999999999973,0.0;0.0;0.0;0.0;0.0;0.0;0.0;0.0;0.0,7.621289842063561e-05;0.0;0.0;0.0;7.621289842063561e-05;0.0;0.0;0.0;7.621289842063561e-05,3.999999975690116e-08;0.0;0.0;0.0;3.999999975690116e-08;0.0;0.0;0.0;3.999999975690116e-08
91,960000000,91.96,imu_link,0.0036197712113373473,0.014987077873936381,0.0035054085639572422,-0.0005657054845723986,0.0001538785944932769,9.800137631428061,-4.6155707943219467e-10,5.330484785087665e-08,-4.989105560561538e-08,0.9999999999999973,0.0;0.0;0.0;0.0;0.0;0.0;0.0;0.0;0.0,7.621289842063561e-05;0.0;0.0;0.0;7.621289842063561e-05;0.0;0.0;0.0;7.621289842063561e-05,3.999999975690116e-08;0.0;0.0;0.0;3.999999975690116e-08;0.0;0.0;0.0;3.999999975690116e-08
91,980000000,91.98,imu_link,0.011998960620843784,0.0041876551852577625,0.0047565264421951655,-0.00030876194530366863,-0.00041513164531943895,9.799996966603805,-4.6155707947332726e-10,5.330484785037397e-08,-4.989105560561605e-08,0.9999999999999973,0.0;0.0;0.0;0.0;0.0;0.0;0.0;0.0;0.0,7.621289842063561e-05;0.0;0.0;0.0;7.621289842063561e-05;0.0;0.0;0.0;7.621289842063561e-05,3.999999975690116e-08;0.0;0.0;0.0;3.999999975690116e-08;0.0;0.0;0.0;3.999999975690116e-08
92,0,92.0,imu_link,-0.01006629052779816,0.006752160330511461,0.0070952922288853625,-0.0005671453400107243,-0.0002105354940958054,9.800033587723735,-4.615570794313152e-10,5.330484785072144e-08,-4.9891055605616415e-08,0.9999999999999973,0.0;0.0;0.0;0.0;0.0;0.0;0.0;0.0;0.0,7.621289842063561e-05;0.0;0.0;0.0;7.621289842063561e-05;0.0;0.0;0.0;7.621289842063561e-05,3.999999975690116e-08;0.0;0.0;0.0;3.999999975690116e-08;0.0;0.0;0.0;3.999999975690116e-08
92,20000000,92.02,imu_link,0.008189022237230722,0.0073188889737888,-0.006232035219325745,8.248724091110331e-05,-0.00019960235524466653,9.799635541272806,-4.6155707943101464e-10,5.330484785086433e-08,-4.989105560561852e-08,0.9999999999999973,0.0;0.0;0.0;0.0;0.0;0.0;0.0;0.0;0.0,7.621289842063561e-05;0.0;0.0;0.0;7.621289842063561e-05;0.0;0.0;0.0;7.621289842063561e-05,3.999999975690116e-08;0.0;0.0;0.0;3.999999975690116e-08;0.0;0.0;0.0;3.999999975690116e-08
92,40000000,92.04,imu_link,0.0076264653522248515,-0.00855559894164952,0.011925876599109857,-0.0002433095505239156,-9.17798173194191e-05,9.800328771764171,-4.6155707946336464e-10,5.3304847850249946e-08,-4.989105560561779e-08,0.9999999999999973,0.0;0.0;0.0;0.0;0.0;0.0;0.0;0.0;0.0,7.621289842063561e-05;0.0;0.0;0.0;7.621289842063561e-05;0.0;0.0;0.0;7.621289842063561e-05,3.999999975690116e-08;0.0;0.0;0.0;3.999999975690116e-08;0.0;0.0;0.0;3.999999975690116e-08
92,60000000,92.06,imu_link,0.0007888898010145506,0.0035738505652078024,-0.015010950501489028,-0.00010658512015728547,-0.00012788228819876962,9.800046215170555,-4.615570795656715e-10,5.33048478505772e-08,-4.989105560561846e-08,0.9999999999999973,0.0;0.0;0.0;0.0;0.0;0.0;0.0;0.0;0.0,7.621289842063561e-05;0.0;0.0;0.0;7.621289842063561e-05;0.0;0.0;0.0;7.621289842063561e-05,3.999999975690116e-08;0.0;0.0;0.0;3.999999975690116e-08;0.0;0.0;0.0;3.999999975690116e-08
92,80000000,92.08,imu_link,0.0011148235972738816,-0.003119297866710656,-0.006203431552787425,-8.125682239352731e-05,1.1768891514380155e-05,9.799897550143923,-4.615570796807479e-10,5.330484785089938e-08,-4.9891055605619995e-08,0.9999999999999973,0.0;0.0;0.0;0.0;0.0;0.0;0.0;0.0;0.0,7.621289842063561e-05;0.0;0.0;0.0;7.621289842063561e-05;0.0;0.0;0.0;7.621289842063561e-05,3.999999975690116e-08;0.0;0.0;0.0;3.999999975690116e-08;0.0;0.0;0.0;3.999999975690116e-08
92,100000000,92.1,imu_link,0.004340015694670076,-0.00012424540655485728,0.0018039620017424485,-0.00020092168517163336,7.236434961946069e-05,9.799917576292403,-4.6155707944879763e-10,5.330484785088839e-08,-4.9891055605619995e-08,0.9999999999999973,0.0;0.0;0.0;0.0;0.0;0.0;0.0;0.0;0.0,7.621289842063561e-05;0.0;0.0;0.0;7.621289842063561e-05;0.0;0.0;0.0;7.621289842063561e-05,3.999999975690116e-08;0.0;0.0;0.0;3.999999975690116e-08;0.0;0.0;0.0;3.999999975690116e-08
92,120000000,92.12,imu_link,-0.0006588591290213705,0.002271216754046843,0.008140776749271524,-7.069829667107118e-05,-0.0004163630949329076,9.799986786160268,-4.615570795840464e-10,5.330484785044213e-08,-4.989105560561948e-08,0.9999999999999973,0.0;0.0;0.0;0.0;0.0;0.0;0.0;0.0;0.0,7.621289842063561e-05;0.0;0.0;0.0;7.621289842063561e-05;0.0;0.0;0.0;7.621289842063561e-05,3.999999975690116e-08;0.0;0.0;0.0;3.999999975690116e-08;0.0;0.0;0.0;3.999999975690116e-08
92,140000000,92.14,imu_link,0.004106588718519047,-0.0061042470019669936,0.00986579484709116,0.00013230098431551713,-9.536040125322388e-06,9.799857504536263,-4.61557079428064e-10,5.3304847850725886e-08,-4.9891055605619585e-08,0.9999999999999973,0.0;0.0;0.0;0.0;0.0;0.0;0.0;0.0;0.0,7.621289842063561e-05;0.0;0.0;0.0;7.621289842063561e-05;0.0;0.0;0.0;7.621289842063561e-05,3.999999975690116e-08;0.0;0.0;0.0;3.999999975690116e-08;0.0;0.0;0.0;3.999999975690116e-08
92,160000000,92.16,imu_link,0.00942752769917936,0.0060046876230127775,-0.004481076709759186,-0.00038672310976208045,0.00014869755619846117,9.800304265383438,-4.6155707942489904e-10,5.33048478508825e-08,-4.9891055605620955e-08,0.9999999999999973,0.0;0.0;0.0;0.0;0.0;0.0;0.0;0.0;0.0,7.621289842063561e-05;0.0;0.0;0.0;7.621289842063561e-05;0.0;0.0;0.0;7.621289842063561e-05,3.999999975690116e-08;0.0;0.0;0.0;3.999999975690116e-08;0.0;0.0;0.0;3.999999975690116e-08
92,180000000,92.18,imu_link,-0.0003190105109641221,0.0087594810533719,0.01359505874057818,-1.4200008276169551e-05,-0.0003345936033952071,9.800164637182233,-4.615570794603077e-10,5.3304847850380475e-08,-4.989105560562084e-08,0.9999999999999973,0.0;0.0;0.0;0.0;0.0;0.0;0.0;0.0;0.0,7.621289842063561e-05;0.0;0.0;0.0;7.621289842063561e-05;0.0;0.0;0.0;7.621289842063561e-05,3.999999975690116e-08;0.0;0.0;0.0;3.999999975690116e-08;0.0;0.0;0.0;3.999999975690116e-08
92,200000000,92.2,imu_link,-0.008555652990266626,0.013737645706472356,0.013971440790813475,0.0002286422593648047,-6.184295346803195e-05,9.800005151363509,-4.615570794246447e-10,5.330484785072206e-08,-4.9891055605620875e-08,0.9999999999999973,0.0;0.0;0.0;0.0;0.0;0.0;0.0;0.0;0.0,7.621289842063561e-05;0.0;0.0;0.0;7.621289842063561e-05;0.0;0.0;0.0;7.621289842063561e-05,3.999999975690116e-08;0.0;0.0;0.0;3.999999975690116e-08;0.0;0.0;0.0;3.999999975690116e-08
92,220000000,92.22,imu_link,0.0059758744617488205,-0.00124187779701336,-0.0016120368806131714,-0.00022160680911241076,-7.095404517440702e-05,9.800075231812725,-4.615570794310272e-10,5.3304847850875156e-08,-4.989105560562228e-08,0.9999999999999973,0.0;0.0;0.0;0.0;0.0;0.0;0.0;0.0;0.0,7.621289842063561e-05;0.0;0.0;0.0;7.621289842063561e-05;0.0;0.0;0.0;7.621289842063561e-05,3.999999975690116e-08;0.0;0.0;0.0;3.999999975690116e-08;0.0;0.0;0.0;3.999999975690116e-08
92,240000000,92.24,imu_link,-0.0076093152543228685,0.012255087956132055,0.015360849084708427,-0.00015175945093236822,-0.0004473107996744479,9.800367664602847,-4.6155707945613586e-10,5.3304847850262704e-08,-4.989105560562245e-08,0.9999999999999973,0.0;0.0;0.0;0.0;0.0;0.0;0.0;0.0;0.0,7.621289842063561e-05;0.0;0.0;0.0;7.621289842063561e-05;0.0;0.0;0.0;7.621289842063561e-05,3.999999975690116e-08;0.0;0.0;0.0;3.999999975690116e-08;0.0;0.0;0.0;3.999999975690116e-08
92,260000000,92.26,imu_link,0.00019187527043651218,-0.0001625108327480785,0.0067516831183376405,-2.3906661883132027e-05,-0.00035694626477928435,9.799834515219212,-4.6155707955321253e-10,5.3304847850605124e-08,-4.989105560562488e-08,0.9999999999999973,0.0;0.0;0.0;0.0;0.0;0.0;0.0;0.0;0.0,7.621289842063561e-05;0.0;0.0;0.0;7.621289842063561e-05;0.0;0.0;0.0;7.621289842063561e-05,3.999999975690116e-08;0.0;0.0;0.0;3.999999975690116e-08;0.0;0.0;0.0;3.999999975690116e-08
92,280000000,92.28,imu_link,-0.014965024380114867,0.00867374976945252,0.013561370552643146,0.0003336071788451591,0.00019776461361335052,9.800260100667565,-4.615570795480076e-10,5.330484785029998e-08,-4.989105560562263e-08,0.9999999999999973,0.0;0.0;0.0;0.0;0.0;0.0;0.0;0.0;0.0,7.621289842063561e-05;0.0;0.0;0.0;7.621289842063561e-05;0.0;0.0;0.0;7.621289842063561e-05,3.999999975690116e-08;0.0;0.0;0.0;3.999999975690116e-08;0.0;0.0;0.0;3.999999975690116e-08
92,300000000,92.3,imu_link,0.0019644936626299417,-0.01366474432459191,0.0016721948993300747,-4.583714994702959e-05,7.033953235234248e-07,9.799949285055234,-4.6155707954561715e-10,5.3304847850465714e-08,-4.989105560562123e-08,0.9999999999999973,0.0;0.0;0.0;0.0;0.0;0.0;0.0;0.0;0.0,7.621289842063561e-05;0.0;0.0;0.0;7.621289842063561e-05;0.0;0.0;0.0;7.621289842063561e-05,3.999999975690116e-08;0.0;0.0;0.0;3.999999975690116e-08;0.0;0.0;0.0;3.999999975690116e-08
92,320000000,92.32,imu_link,-0.012702519166434136,-0.01044509868435648,0.009449985544999566,0.0005697464777016143,-7.548367557514058e-05,9.80001488299573,-4.6155707953939686e-10,5.330484785062009e-08,-4.989105560562187e-08,0.9999999999999973,0.0;0.0;0.0;0.0;0.0;0.0;0.0;0.0;0.0,7.621289842063561e-05;0.0;0.0;0.0;7.621289842063561e-05;0.0;0.0;0.0;7.621289842063561e-05,3.999999975690116e-08;0.0;0.0;0.0;3.999999975690116e-08;0.0;0.0;0.0;3.999999975690116e-08
92,340000000,92.34,imu_link,-0.008073892990385793,-0.00564186973019151,-0.0022021844819754962,9.317730094817235e-05,-2.8983014475265337e-05,9.799647810348297,-4.615570795029166e-10,5.3304847850851366e-08,-4.989105560562286e-08,0.9999999999999973,0.0;0.0;0.0;0.0;0.0;0.0;0.0;0.0;0.0,7.621289842063561e-05;0.0;0.0;0.0;7.621289842063561e-05;0.0;0.0;0.0;7.621289842063561e-05,3.999999975690116e-08;0.0;0.0;0.0;3.999999975690116e-08;0.0;0.0;0.0;3.999999975690116e-08
92,360000000,92.36,imu_link,0.0048771391163536446,0.01640974404888638,0.00891860855316731,-0.00026126837091693534,0.00011472820196784936,9.800190364536327,-4.6155707942455736e-10,5.330484785028567e-08,-4.989105560562296e-08,0.9999999999999973,0.0;0.0;0.0;0.0;0.0;0.0;0.0;0.0;0.0,7.621289842063561e-05;0.0;0.0;0.0;7.621289842063561e-05;0.0;0.0;0.0;7.621289842063561e-05,3.999999975690116e-08;0.0;0.0;0.0;3.999999975690116e-08;0.0;0.0;0.0;3.999999975690116e-08
92,380000000,92.38,imu_link,0.005691536477251974,-0.0023697660411456157,-0.0010474491913220552,-0.00042521594236368627,-0.0001952367723127284,9.799950912748454,-4.6155707942633114e-10,5.3304847850438054e-08,-4.989105560562352e-08,0.9999999999999973,0.0;0.0;0.0;0.0;0.0;0.0;0.0;0.0;0.0,7.621289842063561e-05;0.0;0.0;0.0;7.621289842063561e-05;0.0;0.0;0.0;7.621289842063561e-05,3.999999975690116e-08;0.0;0.0;0.0;3.999999975690116e-08;0.0;0.0;0.0;3.999999975690116e-08
92,400000000,92.4,imu_link,-0.011420614585816198,0.0013762807939392194,0.008904761894939425,0.000252187299070019,-0.0003969950930304118,9.79986766519015,-4.6155707941874946e-10,5.3304847850712644e-08,-4.9891055605622424e-08,0.9999999999999973,0.0;0.0;0.0;0.0;0.0;0.0;0.0;0.0;0.0,7.621289842063561e-05;0.0;0.0;0.0;7.621289842063561e-05;0.0;0.0;0.0;7.621289842063561e-05,3.999999975690116e-08;0.0;0.0;0.0;3.999999975690116e-08;0.0;0.0;0.0;3.999999975690116e-08
92,420000000,92.42,imu_link,0.003359568822647408,-0.0053065137072898705,0.009774401914145917,8.797452550333339e-07,0.0001880516685776572,9.799819792246668,-4.615570795426012e-10,5.330484785038892e-08,-4.989105560562363e-08,0.9999999999999973,0.0;0.0;0.0;0.0;0.0;0.0;0.0;0.0;0.0,7.621289842063561e-05;0.0;0.0;0.0;7.621289842063561e-05;0.0;0.0;0.0;7.621289842063561e-05,3.999999975690116e-08;0.0;0.0;0.0;3.999999975690116e-08;0.0;0.0;0.0;3.999999975690116e-08
92,440000000,92.44,imu_link,-0.01137570542841906,0.008913579286374432,0.004756574238716293,1.789882427144622e-05,-0.00026071658138831415,9.799939223832267,-4.615570794261228e-10,5.3304847850485745e-08,-4.9891055605622636e-08,0.9999999999999973,0.0;0.0;0.0;0.0;0.0;0.0;0.0;0.0;0.0,7.621289842063561e-05;0.0;0.0;0.0;7.621289842063561e-05;0.0;0.0;0.0;7.621289842063561e-05,3.999999975690116e-08;0.0;0.0;0.0;3.999999975690116e-08;0.0;0.0;0.0;3.999999975690116e-08
92,460000000,92.46,imu_link,-0.005694212269515848,0.009211671208133342,0.004307725248526471,0.00017608389062049099,-0.0002719240965137756,9.799672461094287,-4.615570795651126e-10,5.330484785063193e-08,-4.989105560562226e-08,0.9999999999999973,0.0;0.0;0.0;0.0;0.0;0.0;0.0;0.0;0.0,7.621289842063561e-05;0.0;0.0;0.0;7.621289842063561e-05;0.0;0.0;0.0;7.621289842063561e-05,3.999999975690116e-08;0.0;0.0;0.0;3.999999975690116e-08;0.0;0.0;0.0;3.999999975690116e-08
92,480000000,92.48,imu_link,-0.01652984767056202,-0.008110986048205074,0.00420529694748175,0.00026537027871768496,-0.0002786763795642857,9.799944932784927,-4.6155707957190397e-10,5.3304847850312236e-08,-4.989105560562284e-08,0.9999999999999973,0.0;0.0;0.0;0.0;0.0;0.0;0.0;0.0;0.0,7.621289842063561e-05;0.0;0.0;0.0;7.621289842063561e-05;0.0;0.0;0.0;7.621289842063561e-05,3.999999975690116e-08;0.0;0.0;0.0;3.999999975690116e-08;0.0;0.0;0.0;3.999999975690116e-08
92,500000000,92.5,imu_link,0.0014542168333026967,-0.006321873587093135,-0.0018746777797287546,-6.556270027631082e-05,-0.00011501446801114692,9.79936449881038,-4.6155707957209076e-10,5.3304847850471055e-08,-4.9891055605622516e-08,0.9999999999999973,0.0;0.0;0.0;0.0;0.0;0.0;0.0;0.0;0.0,7.621289842063561e-05;0.0;0.0;0.0;7.621289842063561e-05;0.0;0.0;0.0;7.621289842063561e-05,3.999999975690116e-08;0.0;0.0;0.0;3.999999975690116e-08;0.0;0.0;0.0;3.999999975690116e-08
92,520000000,92.52,imu_link,0.004626220231311525,-0.01585237608733244,0.013354496709251717,-2.4730029415850156e-05,-0.00026085915691123173,9.799891826314525,-4.6155707957264756e-10,5.330484785062674e-08,-4.989105560562354e-08,0.9999999999999973,0.0;0.0;0.0;0.0;0.0;0.0;0.0;0.0;0.0,7.621289842063561e-05;0.0;0.0;0.0;7.621289842063561e-05;0.0;0.0;0.0;7.621289842063561e-05,3.999999975690116e-08;0.0;0.0;0.0;3.999999975690116e-08;0.0;0.0;0.0;3.999999975690116e-08
92,540000000,92.54,imu_link,-0.005031038650401604,-0.005843825213775065,-0.0021308339138312476,2.9740021493859938e-05,-7.091058412660299e-05,9.79999400658052,-4.6155707953144295e-10,5.330484785084413e-08,-4.9891055605625766e-08,0.9999999999999973,0.0;0.0;0.0;0.0;0.0;0.0;0.0;0.0;0.0,7.621289842063561e-05;0.0;0.0;0.0;7.621289842063561e-05;0.0;0.0;0.0;7.621289842063561e-05,3.999999975690116e-08;0.0;0.0;0.0;3.999999975690116e-08;0.0;0.0;0.0;3.999999975690116e-08
92,560000000,92.56,imu_link,-0.0020003914370635453,-0.011879828072676171,0.007928894502674222,-0.00026395331521527054,-0.0002138419946488385,9.800060144697852,-4.6155707941778575e-10,5.330484785082572e-08,-4.9891055605629207e-08,0.9999999999999973,0.0;0.0;0.0;0.0;0.0;0.0;0.0;0.0;0.0,7.621289842063561e-05;0.0;0.0;0.0;7.621289842063561e-05;0.0;0.0;0.0;7.621289842063561e-05,3.999999975690116e-08;0.0;0.0;0.0;3.999999975690116e-08;0.0;0.0;0.0;3.999999975690116e-08
92,580000000,92.58,imu_link,0.011406830154247967,0.005502381315925864,-0.017983748908383477,-0.00024539976917816635,-0.00024245723436349493,9.800059908614989,-4.615570794071622e-10,5.3304847850512116e-08,-4.9891055605633905e-08,0.9999999999999973,0.0;0.0;0.0;0.0;0.0;0.0;0.0;0.0;0.0,7.621289842063561e-05;0.0;0.0;0.0;7.621289842063561e-05;0.0;0.0;0.0;7.621289842063561e-05,3.999999975690116e-08;0.0;0.0;0.0;3.999999975690116e-08;0.0;0.0;0.0;3.999999975690116e-08
92,600000000,92.6,imu_link,0.006001356456037727,-0.004015700390525068,-0.00544786422812564,-0.0002472319800517489,-0.0003019487710234123,9.799988961830255,-4.615570795443422e-10,5.330484785065813e-08,-4.9891055605638564e-08,0.9999999999999973,0.0;0.0;0.0;0.0;0.0;0.0;0.0;0.0;0.0,7.621289842063561e-05;0.0;0.0;0.0;7.621289842063561e-05;0.0;0.0;0.0;7.621289842063561e-05,3.999999975690116e-08;0.0;0.0;0.0;3.999999975690116e-08;0.0;0.0;0.0;3.999999975690116e-08
92,620000000,92.62,imu_link,-0.007824743700922957,0.011301567274141566,-0.004606606371322605,0.00013078911729638972,7.382843974690738e-05,9.799837222824666,-4.615570794932878e-10,5.33048478508784e-08,-4.989105560564331e-08,0.9999999999999973,0.0;0.0;0.0;0.0;0.0;0.0;0.0;0.0;0.0,7.621289842063561e-05;0.0;0.0;0.0;7.621289842063561e-05;0.0;0.0;0.0;7.621289842063561e-05,3.999999975690116e-08;0.0;0.0;0.0;3.999999975690116e-08;0.0;0.0;0.0;3.999999975690116e-08
92,640000000,92.64,imu_link,-0.002282521425459141,-0.00847980130051632,-0.017139883360246147,-0.00011814915080979825,-0.00020262063495936217,9.800222512856516,-4.6155707961854197e-10,5.3304847850553045e-08,-4.989105560564833e-08,0.9999999999999973,0.0;0.0;0.0;0.0;0.0;0.0;0.0;0.0;0.0,7.621289842063561e-05;0.0;0.0;0.0;7.621289842063561e-05;0.0;0.0;0.0;7.621289842063561e-05,3.999999975690116e-08;0.0;0.0;0.0;3.999999975690116e-08;0.0;0.0;0.0;3.999999975690116e-08
92,660000000,92.66,imu_link,-0.013001197674351997,-0.006396736997718035,-0.0014216962888610003,-0.0001953274727366039,-0.0004663381984361544,9.800088902753297,-4.6155707937843206e-10,5.3304847850658686e-08,-4.9891055605654796e-08,0.9999999999999973,0.0;0.0;0.0;0.0;0.0;0.0;0.0;0.0;0.0,7.621289842063561e-05;0.0;0.0;0.0;7.621289842063561e-05;0.0;0.0;0.0;7.621289842063561e-05,3.999999975690116e-08;0.0;0.0;0.0;3.999999975690116e-08;0.0;0.0;0.0;3.999999975690116e-08
92,680000000,92.68,imu_link,-0.011260664060820215,-0.0090786400332357,-0.0068409553474731415,0.00022498531147009077,-0.0002148843039596254,9.799737429566642,-4.6155707950446394e-10,5.330484785080541e-08,-4.989105560565879e-08,0.9999999999999973,0.0;0.0;0.0;0.0;0.0;0.0;0.0;0.0;0.0,7.621289842063561e-05;0.0;0.0;0.0;7.621289842063561e-05;0.0;0.0;0.0;7.621289842063561e-05,3.999999975690116e-08;0.0;0.0;0.0;3.999999975690116e-08;0.0;0.0;0.0;3.999999975690116e-08
92,700000000,92.7,imu_link,-0.0059071273812214015,-0.0043026304482451806,-0.005390956261398407,-0.0002804362867381645,5.1849340934420857e-05,9.79977755640787,-4.6155707952139033e-10,5.3304847850430794e-08,-4.989105560566578e-08,0.9999999999999973,0.0;0.0;0.0;0.0;0.0;0.0;0.0;0.0;0.0,7.621289842063561e-05;0.0;0.0;0.0;7.621289842063561e-05;0.0;0.0;0.0;7.621289842063561e-05,3.999999975690116e-08;0.0;0.0;0.0;3.999999975690116e-08;0.0;0.0;0.0;3.999999975690116e-08
92,720000000,92.72,imu_link,-0.00013209786317935478,-0.005688716384242682,-0.002409814133289323,-0.0003597396716445699,0.00010871515448696027,9.79983425607009,-4.61557079654809e-10,5.3304847850578436e-08,-4.9891055605673676e-08,0.9999999999999973,0.0;0.0;0.0;0.0;0.0;0.0;0.0;0.0;0.0,7.621289842063561e-05;0.0;0.0;0.0;7.621289842063561e-05;0.0;0.0;0.0;7.621289842063561e-05,3.999999975690116e-08;0.0;0.0;0.0;3.999999975690116e-08;0.0;0.0;0.0;3.999999975690116e-08
92,740000000,92.74,imu_link,0.011409643398509988,-0.0009399616752882696,2.762381295827901e-05,-0.00020404886934609432,0.00020371756568021162,9.799754217144438,-4.6155707949109173e-10,5.3304847850858685e-08,-4.989105560568131e-08,0.9999999999999973,0.0;0.0;0.0;0.0;0.0;0.0;0.0;0.0;0.0,7.621289842063561e-05;0.0;0.0;0.0;7.621289842063561e-05;0.0;0.0;0.0;7.621289842063561e-05,3.999999975690116e-08;0.0;0.0;0.0;3.999999975690116e-08;0.0;0.0;0.0;3.999999975690116e-08
92,760000000,92.76,imu_link,0.006000301395901901,0.008555426988678535,0.0010294306740271928,-0.0002028264215611508,0.00014486251296058866,9.800078244351056,-4.615570795208484e-10,5.330484785024662e-08,-4.9891055605688724e-08,0.9999999999999973,0.0;0.0;0.0;0.0;0.0;0.0;0.0;0.0;0.0,7.621289842063561e-05;0.0;0.0;0.0;7.621289842063561e-05;0.0;0.0;0.0;7.621289842063561e-05,3.999999975690116e-08;0.0;0.0;0.0;3.999999975690116e-08;0.0;0.0;0.0;3.999999975690116e-08
92,780000000,92.78,imu_link,0.018649718347167454,-0.00764074537935904,-0.0014566482823643438,-8.937594372554985e-06,-0.00036865749796792394,9.800146354459018,-4.615570793720018e-10,5.330484785052346e-08,-4.9891055605696526e-08,0.9999999999999973,0.0;0.0;0.0;0.0;0.0;0.0;0.0;0.0;0.0,7.621289842063561e-05;0.0;0.0;0.0;7.621289842063561e-05;0.0;0.0;0.0;7.621289842063561e-05,3.999999975690116e-08;0.0;0.0;0.0;3.999999975690116e-08;0.0;0.0;0.0;3.999999975690116e-08
92,800000000,92.8,imu_link,-0.011182968468636457,0.016015868271713956,0.003627951093048525,-0.0002595852200190206,-0.00022025430630008447,9.79984519756845,-4.6155707951074565e-10,5.330484785066015e-08,-4.989105560570631e-08,0.9999999999999973,0.0;0.0;0.0;0.0;0.0;0.0;0.0;0.0;0.0,7.621289842063561e-05;0.0;0.0;0.0;7.621289842063561e-05;0.0;0.0;0.0;7.621289842063561e-05,3.999999975690116e-08;0.0;0.0;0.0;3.999999975690116e-08;0.0;0.0;0.0;3.999999975690116e-08
92,820000000,92.82,imu_link,-0.0024212864764711454,-0.0006492693025966283,-0.002894543215674704,6.547599184544638e-05,-0.00016373638011909377,9.800154287192935,-4.615570794764834e-10,5.330484785089063e-08,-4.989105560571464e-08,0.9999999999999973,0.0;0.0;0.0;0.0;0.0;0.0;0.0;0.0;0.0,7.621289842063561e-05;0.0;0.0;0.0;7.621289842063561e-05;0.0;0.0;0.0;7.621289842063561e-05,3.999999975690116e-08;0.0;0.0;0.0;3.999999975690116e-08;0.0;0.0;0.0;3.999999975690116e-08
92,840000000,92.84,imu_link,0.0030004307270524292,0.00825404679589534,-0.014642045879261685,-0.00023523626478226891,-4.088828084168249e-05,9.800347847663316,-4.6155707959226544e-10,5.330484785056634e-08,-4.989105560572196e-08,0.9999999999999973,0.0;0.0;0.0;0.0;0.0;0.0;0.0;0.0;0.0,7.621289842063561e-05;0.0;0.0;0.0;7.621289842063561e-05;0.0;0.0;0.0;7.621289842063561e-05,3.999999975690116e-08;0.0;0.0;0.0;3.999999975690116e-08;0.0;0.0;0.0;3.999999975690116e-08
92,860000000,92.86,imu_link,-0.0037682035520774032,0.0006126174432201746,0.007699131819063581,-0.0003735858531445584,-0.0005118688257184276,9.799650551246154,-4.615570795983131e-10,5.3304847850724655e-08,-4.989105560573062e-08,0.9999999999999973,0.0;0.0;0.0;0.0;0.0;0.0;0.0;0.0;0.0,7.621289842063561e-05;0.0;0.0;0.0;7.621289842063561e-05;0.0;0.0;0.0;7.621289842063561e-05,3.999999975690116e-08;0.0;0.0;0.0;3.999999975690116e-08;0.0;0.0;0.0;3.999999975690116e-08
92,880000000,92.88,imu_link,0.0054703670624248815,0.01834520675794165,-0.011862814176187024,-0.00025558308557452634,1.2693834713826984e-05,9.799682901426326,-4.6155707937128827e-10,5.3304847850301536e-08,-4.9891055605737845e-08,0.9999999999999973,0.0;0.0;0.0;0.0;0.0;0.0;0.0;0.0;0.0,7.621289842063561e-05;0.0;0.0;0.0;7.621289842063561e-05;0.0;0.0;0.0;7.621289842063561e-05,3.999999975690116e-08;0.0;0.0;0.0;3.999999975690116e-08;0.0;0.0;0.0;3.999999975690116e-08
92,900000000,92.9,imu_link,-0.002576255373630633,-0.002413542278385396,0.01886246083996748,5.551231814345222e-05,-0.00011868841740377471,9.7998624378572,-4.615570793703771e-10,5.3304847850458164e-08,-4.989105560574619e-08,0.9999999999999973,0.0;0.0;0.0;0.0;0.0;0.0;0.0;0.0;0.0,7.621289842063561e-05;0.0;0.0;0.0;7.621289842063561e-05;0.0;0.0;0.0;7.621289842063561e-05,3.999999975690116e-08;0.0;0.0;0.0;3.999999975690116e-08;0.0;0.0;0.0;3.999999975690116e-08
92,920000000,92.92,imu_link,0.022370057664372393,0.0010065719931303151,0.0030117994686748996,-8.87791086370057e-05,-0.00023615685164374598,9.799955351770272,-4.615570793702693e-10,5.3304847850617744e-08,-4.989105560575336e-08,0.9999999999999973,0.0;0.0;0.0;0.0;0.0;0.0;0.0;0.0;0.0,7.621289842063561e-05;0.0;0.0;0.0;7.621289842063561e-05;0.0;0.0;0.0;7.621289842063561e-05,3.999999975690116e-08;0.0;0.0;0.0;3.999999975690116e-08;0.0;0.0;0.0;3.999999975690116e-08
92,940000000,92.94,imu_link,-0.0005934994514401367,0.0013847929319152105,0.0011205355412603189,-0.0003289134999862849,-0.00012031130595297962,9.79997553568599,-4.6155707938336604e-10,5.330484785077269e-08,-4.989105560576251e-08,0.9999999999999973,0.0;0.0;0.0;0.0;0.0;0.0;0.0;0.0;0.0,7.621289842063561e-05;0.0;0.0;0.0;7.621289842063561e-05;0.0;0.0;0.0;7.621289842063561e-05,3.999999975690116e-08;0.0;0.0;0.0;3.999999975690116e-08;0.0;0.0;0.0;3.999999975690116e-08
92,960000000,92.96,imu_link,-0.002004396216253878,-0.018968639222744683,-0.012000053098475733,-0.00015286002509413244,-0.0003580132242807627,9.799896902039144,-4.6155707938494177e-10,5.330484785034425e-08,-4.9891055605772064e-08,0.9999999999999973,0.0;0.0;0.0;0.0;0.0;0.0;0.0;0.0;0.0,7.621289842063561e-05;0.0;0.0;0.0;7.621289842063561e-05;0.0;0.0;0.0;7.621289842063561e-05,3.999999975690116e-08;0.0;0.0;0.0;3.999999975690116e-08;0.0;0.0;0.0;3.999999975690116e-08
92,980000000,92.98,imu_link,-0.0011718000616563417,0.005117972461015601,0.009595804403091652,-4.6499782717047145e-05,-7.731409272235257e-05,9.800086092998104,-4.6155707951982447e-10,5.3304847850492105e-08,-4.989105560578105e-08,0.9999999999999973,0.0;0.0;0.0;0.0;0.0;0.0;0.0;0.0;0.0,7.621289842063561e-05;0.0;0.0;0.0;7.621289842063561e-05;0.0;0.0;0.0;7.621289842063561e-05,3.999999975690116e-08;0.0;0.0;0.0;3.999999975690116e-08;0.0;0.0;0.0;3.999999975690116e-08
93,0,93.0,imu_link,-0.011801147835146424,-0.010282974939751261,-0.006308482813850735,0.00023002575065453877,-0.00020191962800923647,9.799926441266646,-4.615570795209597e-10,5.330484785064981e-08,-4.9891055605790805e-08,0.9999999999999973,0.0;0.0;0.0;0.0;0.0;0.0;0.0;0.0;0.0,7.621289842063561e-05;0.0;0.0;0.0;7.621289842063561e-05;0.0;0.0;0.0;7.621289842063561e-05,3.999999975690116e-08;0.0;0.0;0.0;3.999999975690116e-08;0.0;0.0;0.0;3.999999975690116e-08
93,20000000,93.02,imu_link,-0.0020192091938415267,-0.00423228177517016,-0.016915328521516167,-2.437342543401967e-05,-9.850981847790797e-06,9.800155685313378,-4.6155707951976006e-10,5.330484785033626e-08,-4.989105560580027e-08,0.9999999999999973,0.0;0.0;0.0;0.0;0.0;0.0;0.0;0.0;0.0,7.621289842063561e-05;0.0;0.0;0.0;7.621289842063561e-05;0.0;0.0;0.0;7.621289842063561e-05,3.999999975690116e-08;0.0;0.0;0.0;3.999999975690116e-08;0.0;0.0;0.0;3.999999975690116e-08
93,40000000,93.04,imu_link,0.005685032259102833,-0.00040960721460138417,0.003839737003099282,2.8024499600187556e-05,-0.00024031299606299192,9.799826693632303,-4.615570796221165e-10,5.330484785055235e-08,-4.9891055605807825e-08,0.9999999999999973,0.0;0.0;0.0;0.0;0.0;0.0;0.0;0.0;0.0,7.621289842063561e-05;0.0;0.0;0.0;7.621289842063561e-05;0.0;0.0;0.0;7.621289842063561e-05,3.999999975690116e-08;0.0;0.0;0.0;3.999999975690116e-08;0.0;0.0;0.0;3.999999975690116e-08
93,60000000,93.06,imu_link,-0.0019432702541705652,0.004712970428129005,-0.007483112927320531,0.0002926578780836772,-0.0003438153738978627,9.800010395061005,-4.6155707936630327e-10,5.330484785065907e-08,-4.989105560581326e-08,0.9999999999999973,0.0;0.0;0.0;0.0;0.0;0.0;0.0;0.0;0.0,7.621289842063561e-05;0.0;0.0;0.0;7.621289842063561e-05;0.0;0.0;0.0;7.621289842063561e-05,3.999999975690116e-08;0.0;0.0;0.0;3.999999975690116e-08;0.0;0.0;0.0;3.999999975690116e-08
93,80000000,93.08,imu_link,-0.006674033392059307,0.009979051234732549,0.0009340858389810708,-0.00011489361390264942,-0.00030189703942843467,9.800132118068225,-4.615570796005547e-10,5.3304847850397065e-08,-4.989105560581935e-08,0.9999999999999973,0.0;0.0;0.0;0.0;0.0;0.0;0.0;0.0;0.0,7.621289842063561e-05;0.0;0.0;0.0;7.621289842063561e-05;0.0;0.0;0.0;7.621289842063561e-05,3.999999975690116e-08;0.0;0.0;0.0;3.999999975690116e-08;0.0;0.0;0.0;3.999999975690116e-08
93,100000000,93.1,imu_link,-0.01667265337640436,-0.011953146793769364,0.006509465316518263,-5.1939688585837504e-05,3.487186364680061e-05,9.800183151768254,-4.6155707949488177e-10,5.3304847850503156e-08,-4.989105560582463e-08,0.9999999999999973,0.0;0.0;0.0;0.0;0.0;0.0;0.0;0.0;0.0,7.621289842063561e-05;0.0;0.0;0.0;7.621289842063561e-05;0.0;0.0;0.0;7.621289842063561e-05,3.999999975690116e-08;0.0;0.0;0.0;3.999999975690116e-08;0.0;0.0;0.0;3.999999975690116e-08
93,120000000,93.12,imu_link,-0.0015389115868529952,-0.016582988921191436,6.002131074676505e-05,1.2550675740601353e-05,0.000170073776135078,9.799871824108541,-4.6155707937544237e-10,5.330484785059595e-08,-4.9891055605829894e-08,0.9999999999999973,0.0;0.0;0.0;0.0;0.0;0.0;0.0;0.0;0.0,7.621289842063561e-05;0.0;0.0;0.0;7.621289842063561e-05;0.0;0.0;0.0;7.621289842063561e-05,3.999999975690116e-08;0.0;0.0;0.0;3.999999975690116e-08;0.0;0.0;0.0;3.999999975690116e-08
93,140000000,93.14,imu_link,-0.012487804499807777,-0.009276122755136134,0.0027085267716054047,-0.0003998147751717706,-1.6852458724444884e-05,9.799646453982383,-4.6155707950914547e-10,5.3304847850267145e-08,-4.9891055605836683e-08,0.9999999999999973,0.0;0.0;0.0;0.0;0.0;0.0;0.0;0.0;0.0,7.621289842063561e-05;0.0;0.0;0.0;7.621289842063561e-05;0.0;0.0;0.0;7.621289842063561e-05,3.999999975690116e-08;0.0;0.0;0.0;3.999999975690116e-08;0.0;0.0;0.0;3.999999975690116e-08
93,160000000,93.16,imu_link,-0.01204307100735,0.003524942297624164,-0.0021800528597031416,-0.0003187861545596259,-0.00019113471351173364,9.799933303150299,-4.61557079391265e-10,5.3304847850356765e-08,-4.989105560584211e-08,0.9999999999999973,0.0;0.0;0.0;0.0;0.0;0.0;0.0;0.0;0.0,7.621289842063561e-05;0.0;0.0;0.0;7.621289842063561e-05;0.0;0.0;0.0;7.621289842063561e-05,3.999999975690116e-08;0.0;0.0;0.0;3.999999975690116e-08;0.0;0.0;0.0;3.999999975690116e-08
93,180000000,93.18,imu_link,-0.012356552224637227,-0.006680576403675967,0.0015069426077414664,-0.00019310440137277268,-0.00011835613719477165,9.799820152303251,-4.6155707952147056e-10,5.330484785049983e-08,-4.989105560584829e-08,0.9999999999999973,0.0;0.0;0.0;0.0;0.0;0.0;0.0;0.0;0.0,7.621289842063561e-05;0.0;0.0;0.0;7.621289842063561e-05;0.0;0.0;0.0;7.621289842063561e-05,3.999999975690116e-08;0.0;0.0;0.0;3.999999975690116e-08;0.0;0.0;0.0;3.999999975690116e-08
93,200000000,93.2,imu_link,-0.0007185179359746284,0.00014402313687861116,0.008159961522177074,-0.00025322050393707595,-0.00017422103571483719,9.79981598307063,-4.615570795120444e-10,5.330484785065821e-08,-4.989105560585385e-08,0.9999999999999973,0.0;0.0;0.0;0.0;0.0;0.0;0.0;0.0;0.0,7.621289842063561e-05;0.0;0.0;0.0;7.621289842063561e-05;0.0;0.0;0.0;7.621289842063561e-05,3.999999975690116e-08;0.0;0.0;0.0;3.999999975690116e-08;0.0;0.0;0.0;3.999999975690116e-08
93,220000000,93.22,imu_link,-0.004052453678759205,-0.006319567936869175,0.007167809604507013,-4.236232077773589e-05,-0.00021712428756301367,9.79984902869398,-4.6155707949779066e-10,5.330484785035006e-08,-4.989105560585755e-08,0.9999999999999973,0.0;0.0;0.0;0.0;0.0;0.0;0.0;0.0;0.0,7.621289842063561e-05;0.0;0.0;0.0;7.621289842063561e-05;0.0;0.0;0.0;7.621289842063561e-05,3.999999975690116e-08;0.0;0.0;0.0;3.999999975690116e-08;0.0;0.0;0.0;3.999999975690116e-08
93,240000000,93.24,imu_link,0.005102675578577851,-0.0001431289624330047,0.006514822615367487,0.00021890425172772473,-4.9429351581706454e-05,9.799667785864758,-4.6155707950279603e-10,5.330484785051109e-08,-4.989105560586118e-08,0.9999999999999973,0.0;0.0;0.0;0.0;0.0;0.0;0.0;0.0;0.0,7.621289842063561e-05;0.0;0.0;0.0;7.621289842063561e-05;0.0;0.0;0.0;7.621289842063561e-05,3.999999975690116e-08;0.0;0.0;0.0;3.999999975690116e-08;0.0;0.0;0.0;3.999999975690116e-08
93,260000000,93.26,imu_link,0.0028892759540410954,0.0030940429717938745,-0.0045877725284166875,8.343252273914878e-05,0.00019230814968557055,9.800226479751062,-4.6155707949833515e-10,5.330484785054885e-08,-4.9891055605866085e-08,0.9999999999999973,0.0;0.0;0.0;0.0;0.0;0.0;0.0;0.0;0.0,7.621289842063561e-05;0.0;0.0;0.0;7.621289842063561e-05;0.0;0.0;0.0;7.621289842063561e-05,3.999999975690116e-08;0.0;0.0;0.0;3.999999975690116e-08;0.0;0.0;0.0;3.999999975690116e-08
93,280000000,93.28,imu_link,-0.005487981659634623,-0.010078105317629,0.0030572954334078255,-9.596773268048299e-05,7.975943109079755e-06,9.800251796054834,-4.615570794547076e-10,5.33048478508782e-08,-4.9891055605870816e-08,0.9999999999999973,0.0;0.0;0.0;0.0;0.0;0.0;0.0;0.0;0.0,7.621289842063561e-05;0.0;0.0;0.0;7.621289842063561e-05;0.0;0.0;0.0;7.621289842063561e-05,3.999999975690116e-08;0.0;0.0;0.0;3.999999975690116e-08;0.0;0.0;0.0;3.999999975690116e-08
93,300000000,93.3,imu_link,-0.009899754029815905,0.020651488906535186,-0.010182685215389117,0.00012264655351950428,8.366622528405257e-06,9.799738940970414,-4.6155707958967734e-10,5.330484785054936e-08,-4.989105560587479e-08,0.9999999999999973,0.0;0.0;0.0;0.0;0.0;0.0;0.0;0.0;0.0,7.621289842063561e-05;0.0;0.0;0.0;7.621289842063561e-05;0.0;0.0;0.0;7.621289842063561e-05,3.999999975690116e-08;0.0;0.0;0.0;3.999999975690116e-08;0.0;0.0;0.0;3.999999975690116e-08
93,320000000,93.32,imu_link,0.003010445932788077,-0.0005797082648335478,0.005299876515541455,-0.00022460525769180922,4.967235008816296e-05,9.799979204480149,-4.6155707958038423e-10,5.3304847850583816e-08,-4.989105560587878e-08,0.9999999999999973,0.0;0.0;0.0;0.0;0.0;0.0;0.0;0.0;0.0,7.621289842063561e-05;0.0;0.0;0.0;7.621289842063561e-05;0.0;0.0;0.0;7.621289842063561e-05,3.999999975690116e-08;0.0;0.0;0.0;3.999999975690116e-08;0.0;0.0;0.0;3.999999975690116e-08
93,340000000,93.34,imu_link,-0.013093613719897737,-0.009902654410865587,-0.001273971065717394,7.919620650484516e-05,-0.00013230598733078442,9.799819814158848,-4.6155707967014925e-10,5.330484785092308e-08,-4.989105560588113e-08,0.9999999999999973,0.0;0.0;0.0;0.0;0.0;0.0;0.0;0.0;0.0,7.621289842063561e-05;0.0;0.0;0.0;7.621289842063561e-05;0.0;0.0;0.0;7.621289842063561e-05,3.999999975690116e-08;0.0;0.0;0.0;3.999999975690116e-08;0.0;0.0;0.0;3.999999975690116e-08
93,360000000,93.36,imu_link,0.004318495970059692,-0.0010453424877826818,-0.010017164495402789,-0.0002915595319568594,-0.0003147103337207011,9.799342274924422,-4.615570794686148e-10,5.33048478503808e-08,-4.9891055605883965e-08,0.9999999999999973,0.0;0.0;0.0;0.0;0.0;0.0;0.0;0.0;0.0,7.621289842063561e-05;0.0;0.0;0.0;7.621289842063561e-05;0.0;0.0;0.0;7.621289842063561e-05,3.999999975690116e-08;0.0;0.0;0.0;3.999999975690116e-08;0.0;0.0;0.0;3.999999975690116e-08
93,380000000,93.38,imu_link,0.018106906285996354,-0.008525322260159238,0.006422836042600587,-0.0006688940474985356,-0.00015331778408883507,9.799693105723728,-4.615570794566163e-10,5.330484785064659e-08,-4.9891055605887605e-08,0.9999999999999973,0.0;0.0;0.0;0.0;0.0;0.0;0.0;0.0;0.0,7.621289842063561e-05;0.0;0.0;0.0;7.621289842063561e-05;0.0;0.0;0.0;7.621289842063561e-05,3.999999975690116e-08;0.0;0.0;0.0;3.999999975690116e-08;0.0;0.0;0.0;3.999999975690116e-08
93,400000000,93.4,imu_link,0.009013033161621956,-0.008453197134427876,-0.010267621188150637,0.00026744043709556935,-0.0002683632721610061,9.799763536232689,-4.6155707959242064e-10,5.330484785066271e-08,-4.989105560589007e-08,0.9999999999999973,0.0;0.0;0.0;0.0;0.0;0.0;0.0;0.0;0.0,7.621289842063561e-05;0.0;0.0;0.0;7.621289842063561e-05;0.0;0.0;0.0;7.621289842063561e-05,3.999999975690116e-08;0.0;0.0;0.0;3.999999975690116e-08;0.0;0.0;0.0;3.999999975690116e-08
93,420000000,93.42,imu_link,-0.01227172520347557,-0.007821438161834147,-0.021301050984792954,-0.0006948622172561239,-5.9291433898391147e-05,9.799816212760318,-4.615570794708394e-10,5.330484785029038e-08,-4.9891055605891595e-08,0.9999999999999973,0.0;0.0;0.0;0.0;0.0;0.0;0.0;0.0;0.0,7.621289842063561e-05;0.0;0.0;0.0;7.621289842063561e-05;0.0;0.0;0.0;7.621289842063561e-05,3.999999975690116e-08;0.0;0.0;0.0;3.999999975690116e-08;0.0;0.0;0.0;3.999999975690116e-08
93,440000000,93.44,imu_link,0.0045656511019491015,-0.003913940420561355,-0.003248071394259698,-0.0004823789875621703,-0.0004031664596929506,9.80016850519381,-4.615570794686806e-10,5.330484785032865e-08,-4.989105560589636e-08,0.9999999999999973,0.0;0.0;0.0;0.0;0.0;0.0;0.0;0.0;0.0,7.621289842063561e-05;0.0;0.0;0.0;7.621289842063561e-05;0.0;0.0;0.0;7.621289842063561e-05,3.999999975690116e-08;0.0;0.0;0.0;3.999999975690116e-08;0.0;0.0;0.0;3.999999975690116e-08
93,460000000,93.46,imu_link,-0.0033074380688356427,0.0075229330867242145,-0.012211645101700785,-0.00032820697461963743,-0.00023103152148217675,9.80003966214946,-4.615570795648671e-10,5.330484785066171e-08,-4.989105560589972e-08,0.9999999999999973,0.0;0.0;0.0;0.0;0.0;0.0;0.0;0.0;0.0,7.621289842063561e-05;0.0;0.0;0.0;7.621289842063561e-05;0.0;0.0;0.0;7.621289842063561e-05,3.999999975690116e-08;0.0;0.0;0.0;3.999999975690116e-08;0.0;0.0;0.0;3.999999975690116e-08
93,480000000,93.48,imu_link,-0.009892003076290153,0.0016986186202038714,0.001387847975563229,-0.00039207898019372775,-0.000120930636554932,9.800044416180404,-4.6155707955522144e-10,5.3304847850349406e-08,-4.989105560590383e-08,0.9999999999999973,0.0;0.0;0.0;0.0;0.0;0.0;0.0;0.0;0.0,7.621289842063561e-05;0.0;0.0;0.0;7.621289842063561e-05;0.0;0.0;0.0;7.621289842063561e-05,3.999999975690116e-08;0.0;0.0;0.0;3.999999975690116e-08;0.0;0.0;0.0;3.999999975690116e-08
93,500000000,93.5,imu_link,-0.0003926039668187221,0.006819981163300111,0.0029976000644683647,-0.0005816454678451495,-3.578120210807751e-06,9.799993880178096,-4.615570795336751e-10,5.330484785039217e-08,-4.9891055605908284e-08,0.9999999999999973,0.0;0.0;0.0;0.0;0.0;0.0;0.0;0.0;0.0,7.621289842063561e-05;0.0;0.0;0.0;7.621289842063561e-05;0.0;0.0;0.0;7.621289842063561e-05,3.999999975690116e-08;0.0;0.0;0.0;3.999999975690116e-08;0.0;0.0;0.0;3.999999975690116e-08
93,520000000,93.52,imu_link,0.023881334138963255,-0.005522119380097858,-0.0063997110620138496,3.280961535626112e-05,-0.0004070693369832012,9.799861605754126,-4.615570796243801e-10,5.330484785071848e-08,-4.989105560591152e-08,0.9999999999999973,0.0;0.0;0.0;0.0;0.0;0.0;0.0;0.0;0.0,7.621289842063561e-05;0.0;0.0;0.0;7.621289842063561e-05;0.0;0.0;0.0;7.621289842063561e-05,3.999999975690116e-08;0.0;0.0;0.0;3.999999975690116e-08;0.0;0.0;0.0;3.999999975690116e-08
93,540000000,93.54,imu_link,-0.006984432042750946,0.000618486406080735,-0.011531405175313491,-0.0002056050016888388,-0.00011394311040813752,9.800004513326062,-4.6155707938315955e-10,5.330484785081551e-08,-4.989105560591562e-08,0.9999999999999973,0.0;0.0;0.0;0.0;0.0;0.0;0.0;0.0;0.0,7.621289842063561e-05;0.0;0.0;0.0;7.621289842063561e-05;0.0;0.0;0.0;7.621289842063561e-05,3.999999975690116e-08;0.0;0.0;0.0;3.999999975690116e-08;0.0;0.0;0.0;3.999999975690116e-08
93,560000000,93.56,imu_link,0.004297691390849191,0.01520992390018476,0.010992471337807026,-0.00022986552032688498,-0.00034441340744997573,9.79953580491099,-4.6155707944332257e-10,5.330484785024914e-08,-4.989105560591691e-08,0.9999999999999973,0.0;0.0;0.0;0.0;0.0;0.0;0.0;0.0;0.0,7.621289842063561e-05;0.0;0.0;0.0;7.621289842063561e-05;0.0;0.0;0.0;7.621289842063561e-05,3.999999975690116e-08;0.0;0.0;0.0;3.999999975690116e-08;0.0;0.0;0.0;3.999999975690116e-08
93,580000000,93.58,imu_link,-0.0144788783503248,-0.0103076286615808,-0.00787149895469106,-5.066084403265232e-05,-0.00020631768644608088,9.799888762179943,-4.615570794021677e-10,5.330484785059384e-08,-4.989105560591783e-08,0.9999999999999973,0.0;0.0;0.0;0.0;0.0;0.0;0.0;0.0;0.0,7.621289842063561e-05;0.0;0.0;0.0;7.621289842063561e-05;0.0;0.0;0.0;7.621289842063561e-05,3.999999975690116e-08;0.0;0.0;0.0;3.999999975690116e-08;0.0;0.0;0.0;3.999999975690116e-08
93,600000000,93.6,imu_link,-0.0005847439752211877,0.014509180820478845,-0.0048726428631949426,5.7137201747958324e-05,-0.00022261663493904567,9.799805022120516,-4.615570794104237e-10,5.3304847850750265e-08,-4.989105560592058e-08,0.9999999999999973,0.0;0.0;0.0;0.0;0.0;0.0;0.0;0.0;0.0,7.621289842063561e-05;0.0;0.0;0.0;7.621289842063561e-05;0.0;0.0;0.0;7.621289842063561e-05,3.999999975690116e-08;0.0;0.0;0.0;3.999999975690116e-08;0.0;0.0;0.0;3.999999975690116e-08
93,620000000,93.62,imu_link,-0.020800710010992127,-0.014142222465131356,0.010575418365140499,-0.00010964309708157315,-0.0002295800452137976,9.799592031198385,-4.6155707940734146e-10,5.3304847850895994e-08,-4.989105560592629e-08,0.9999999999999973,0.0;0.0;0.0;0.0;0.0;0.0;0.0;0.0;0.0,7.621289842063561e-05;0.0;0.0;0.0;7.621289842063561e-05;0.0;0.0;0.0;7.621289842063561e-05,3.999999975690116e-08;0.0;0.0;0.0;3.999999975690116e-08;0.0;0.0;0.0;3.999999975690116e-08
93,640000000,93.64,imu_link,0.017149143649930906,-0.008811758810033675,-0.00871091453875135,-8.326761974718264e-05,0.00029012613679795017,9.799961505909602,-4.615570794458061e-10,5.330484785039393e-08,-4.989105560592846e-08,0.9999999999999973,0.0;0.0;0.0;0.0;0.0;0.0;0.0;0.0;0.0,7.621289842063561e-05;0.0;0.0;0.0;7.621289842063561e-05;0.0;0.0;0.0;7.621289842063561e-05,3.999999975690116e-08;0.0;0.0;0.0;3.999999975690116e-08;0.0;0.0;0.0;3.999999975690116e-08
93,660000000,93.66,imu_link,-0.004691571079744546,0.0005484114436741904,-0.011769436449916688,-1.5349314073803604e-05,0.00029770865005965947,9.799925247379031,-4.6155707941465523e-10,5.330484785073307e-08,-4.989105560593358e-08,0.9999999999999973,0.0;0.0;0.0;0.0;0.0;0.0;0.0;0.0;0.0,7.621289842063561e-05;0.0;0.0;0.0;7.621289842063561e-05;0.0;0.0;0.0;7.621289842063561e-05,3.999999975690116e-08;0.0;0.0;0.0;3.999999975690116e-08;0.0;0.0;0.0;3.999999975690116e-08
93,680000000,93.68,imu_link,-0.0030119831160648476,-0.0065318858943177165,0.013845527224058098,-8.3858736654835e-05,-0.0001320003351515822,9.799671943412473,-4.61557079423482e-10,5.3304847850887636e-08,-4.989105560593732e-08,0.9999999999999973,0.0;0.0;0.0;0.0;0.0;0.0;0.0;0.0;0.0,7.621289842063561e-05;0.0;0.0;0.0;7.621289842063561e-05;0.0;0.0;0.0;7.621289842063561e-05,3.999999975690116e-08;0.0;0.0;0.0;3.999999975690116e-08;0.0;0.0;0.0;3.999999975690116e-08
93,700000000,93.7,imu_link,-0.004728193690037638,-0.010576699005435185,0.004523259377772624,3.4602243585227935e-05,-0.00019634562669340215,9.800229782581866,-4.615570794524718e-10,5.330484785037876e-08,-4.989105560594176e-08,0.9999999999999973,0.0;0.0;0.0;0.0;0.0;0.0;0.0;0.0;0.0,7.621289842063561e-05;0.0;0.0;0.0;7.621289842063561e-05;0.0;0.0;0.0;7.621289842063561e-05,3.999999975690116e-08;0.0;0.0;0.0;3.999999975690116e-08;0.0;0.0;0.0;3.999999975690116e-08
93,720000000,93.72,imu_link,0.012996864789559925,-0.015103960306691578,-0.0034735333156024656,-4.500694478985227e-05,-0.00012699961616966746,9.799850270827692,-4.615570794359908e-10,5.33048478507101e-08,-4.989105560594678e-08,0.9999999999999973,0.0;0.0;0.0;0.0;0.0;0.0;0.0;0.0;0.0,7.621289842063561e-05;0.0;0.0;0.0;7.621289842063561e-05;0.0;0.0;0.0;7.621289842063561e-05,3.999999975690116e-08;0.0;0.0;0.0;3.999999975690116e-08;0.0;0.0;0.0;3.999999975690116e-08
93,740000000,93.74,imu_link,0.0002398061602920488,0.0011466561198093944,0.00627679555608733,0.00021606191758762573,2.8108393519010817e-05,9.800643635373167,-4.615570793579272e-10,5.3304847850794343e-08,-4.9891055605947684e-08,0.9999999999999973,0.0;0.0;0.0;0.0;0.0;0.0;0.0;0.0;0.0,7.621289842063561e-05;0.0;0.0;0.0;7.621289842063561e-05;0.0;0.0;0.0;7.621289842063561e-05,3.999999975690116e-08;0.0;0.0;0.0;3.999999975690116e-08;0.0;0.0;0.0;3.999999975690116e-08
93,760000000,93.76,imu_link,-0.0042967959662695895,-0.002936185872752059,-0.008454596706540148,-0.0003336389711851689,-0.00011203093854293603,9.80002481275088,-4.6155707938044413e-10,5.330484785047864e-08,-4.989105560595148e-08,0.9999999999999973,0.0;0.0;0.0;0.0;0.0;0.0;0.0;0.0;0.0,7.621289842063561e-05;0.0;0.0;0.0;7.621289842063561e-05;0.0;0.0;0.0;7.621289842063561e-05,3.999999975690116e-08;0.0;0.0;0.0;3.999999975690116e-08;0.0;0.0;0.0;3.999999975690116e-08
93,780000000,93.78,imu_link,0.00394738879581388,-0.001913328451012565,0.01614897222044822,-0.0001294028627096073,-0.00022054505814182574,9.799932159879788,-4.6155707940563374e-10,5.330484785063079e-08,-4.9891055605956797e-08,0.9999999999999973,0.0;0.0;0.0;0.0;0.0;0.0;0.0;0.0;0.0,7.621289842063561e-05;0.0;0.0;0.0;7.621289842063561e-05;0.0;0.0;0.0;7.621289842063561e-05,3.999999975690116e-08;0.0;0.0;0.0;3.999999975690116e-08;0.0;0.0;0.0;3.999999975690116e-08
93,800000000,93.8,imu_link,-0.013684368444430653,0.0011224388650333285,-0.005389402334067633,-0.00038171164549814763,-0.0003005279993201597,9.800160200371073,-4.6155707942529303e-10,5.3304847850770084e-08,-4.989105560596148e-08,0.9999999999999973,0.0;0.0;0.0;0.0;0.0;0.0;0.0;0.0;0.0,7.621289842063561e-05;0.0;0.0;0.0;7.621289842063561e-05;0.0;0.0;0.0;7.621289842063561e-05,3.999999975690116e-08;0.0;0.0;0.0;3.999999975690116e-08;0.0;0.0;0.0;3.999999975690116e-08
93,820000000,93.82,imu_link,0.005402586755500171,0.004451684972305983,0.005113640232319505,-0.00024114960830175501,0.0003281928802200926,9.799971505409681,-4.6155707959490683e-10,5.330484785043611e-08,-4.9891055605966134e-08,0.9999999999999973,0.0;0.0;0.0;0.0;0.0;0.0;0.0;0.0;0.0,7.621289842063561e-05;0.0;0.0;0.0;7.621289842063561e-05;0.0;0.0;0.0;7.621289842063561e-05,3.999999975690116e-08;0.0;0.0;0.0;3.999999975690116e-08;0.0;0.0;0.0;3.999999975690116e-08
93,840000000,93.84,imu_link,0.011068138424609577,0.0002420037138852297,0.0031438656136474666,-4.662938662444756e-05,-9.386149113698293e-05,9.799778538361945,-4.615570793821454e-10,5.330484785041951e-08,-4.9891055605969793e-08,0.9999999999999973,0.0;0.0;0.0;0.0;0.0;0.0;0.0;0.0;0.0,7.621289842063561e-05;0.0;0.0;0.0;7.621289842063561e-05;0.0;0.0;0.0;7.621289842063561e-05,3.999999975690116e-08;0.0;0.0;0.0;3.999999975690116e-08;0.0;0.0;0.0;3.999999975690116e-08
93,860000000,93.86,imu_link,-0.0050875225504642355,-0.005332030652234816,0.004769237293223608,-0.00036748292614772495,-0.0004908048553138234,9.799984737438704,-4.615570796373144e-10,5.3304847850714e-08,-4.989105560597312e-08,0.9999999999999973,0.0;0.0;0.0;0.0;0.0;0.0;0.0;0.0;0.0,7.621289842063561e-05;0.0;0.0;0.0;7.621289842063561e-05;0.0;0.0;0.0;7.621289842063561e-05,3.999999975690116e-08;0.0;0.0;0.0;3.999999975690116e-08;0.0;0.0;0.0;3.999999975690116e-08
93,880000000,93.88,imu_link,-0.006460898567528054,-0.013429568342493717,0.0025502600239718774,-0.00031459517161882704,-0.00012138055604680867,9.799884197874965,-4.6155707955140556e-10,5.330484785032862e-08,-4.989105560597487e-08,0.9999999999999973,0.0;0.0;0.0;0.0;0.0;0.0;0.0;0.0;0.0,7.621289842063561e-05;0.0;0.0;0.0;7.621289842063561e-05;0.0;0.0;0.0;7.621289842063561e-05,3.999999975690116e-08;0.0;0.0;0.0;3.999999975690116e-08;0.0;0.0;0.0;3.999999975690116e-08
93,900000000,93.9,imu_link,0.0074942928966424205,-0.0021749280228219457,-0.006315718874264124,-0.0003717785223596678,-0.0006719521066028373,9.800088272821963,-4.6155707956029196e-10,5.3304847850462684e-08,-4.989105560597811e-08,0.9999999999999973,0.0;0.0;0.0;0.0;0.0;0.0;0.0;0.0;0.0,7.621289842063561e-05;0.0;0.0;0.0;7.621289842063561e-05;0.0;0.0;0.0;7.621289842063561e-05,3.999999975690116e-08;0.0;0.0;0.0;3.999999975690116e-08;0.0;0.0;0.0;3.999999975690116e-08
93,920000000,93.92,imu_link,0.011609854952824294,-0.01077930959791974,0.007410144340824003,7.995234527140726e-05,-0.0001008417207613825,9.799687968240253,-4.6155707943935024e-10,5.330484785062013e-08,-4.98910556059826e-08,0.9999999999999973,0.0;0.0;0.0;0.0;0.0;0.0;0.0;0.0;0.0,7.621289842063561e-05;0.0;0.0;0.0;7.621289842063561e-05;0.0;0.0;0.0;7.621289842063561e-05,3.999999975690116e-08;0.0;0.0;0.0;3.999999975690116e-08;0.0;0.0;0.0;3.999999975690116e-08
93,940000000,93.94,imu_link,0.0024033982868693522,0.008205807922644888,-0.014919894968670699,0.00026099058182155383,-0.0004903355417693855,9.799946580508477,-4.615570797037882e-10,5.3304847850920975e-08,-4.989105560598679e-08,0.9999999999999973,0.0;0.0;0.0;0.0;0.0;0.0;0.0;0.0;0.0,7.621289842063561e-05;0.0;0.0;0.0;7.621289842063561e-05;0.0;0.0;0.0;7.621289842063561e-05,3.999999975690116e-08;0.0;0.0;0.0;3.999999975690116e-08;0.0;0.0;0.0;3.999999975690116e-08
93,960000000,93.96,imu_link,0.0047946977341281624,-0.004557260547703923,0.0034398482137808343,0.00013732554148040244,-0.0004094609058064627,9.799779013579762,-4.6155707951883573e-10,5.330484785025012e-08,-4.9891055605989765e-08,0.9999999999999973,0.0;0.0;0.0;0.0;0.0;0.0;0.0;0.0;0.0,7.621289842063561e-05;0.0;0.0;0.0;7.621289842063561e-05;0.0;0.0;0.0;7.621289842063561e-05,3.999999975690116e-08;0.0;0.0;0.0;3.999999975690116e-08;0.0;0.0;0.0;3.999999975690116e-08
93,980000000,93.98,imu_link,-0.005928584871434632,0.0027093856376640317,-0.00992715013929818,-0.00036626953866479334,0.00028697961984204247,9.799652277110274,-4.615570793760234e-10,5.330484785052307e-08,-4.9891055605991743e-08,0.9999999999999973,0.0;0.0;0.0;0.0;0.0;0.0;0.0;0.0;0.0,7.621289842063561e-05;0.0;0.0;0.0;7.621289842063561e-05;0.0;0.0;0.0;7.621289842063561e-05,3.999999975690116e-08;0.0;0.0;0.0;3.999999975690116e-08;0.0;0.0;0.0;3.999999975690116e-08
