time_sec,time_nsec,timestamp,frame_id,angular_vel_x,angular_vel_y,angular_vel_z,linear_acc_x,linear_acc_y,linear_acc_z,orient_x,orient_y,orient_z,orient_w,orientation_covariance,angular_velocity_covariance,linear_acceleration_covariance
46,360000000,46.36,imu_link,0.002446417047190404,0.001306961065295285,-0.021540311803065867,0.000236653940980878,0.00022427250379299189,9.799858217643187,-4.6155707952860836e-10,5.330484785085646e-08,-4.9891055592576555e-08,0.9999999999999973,0.0;0.0;0.0;0.0;0.0;0.0;0.0;0.0;0.0,7.621289842063561e-05;0.0;0.0;0.0;7.621289842063561e-05;0.0;0.0;0.0;7.621289842063561e-05,3.999999975690116e-08;0.0;0.0;0.0;3.999999975690116e-08;0.0;0.0;0.0;3.999999975690116e-08
46,380000000,46.38,imu_link,-0.013051913807794512,0.012222414791023373,0.0057016117738503385,-1.7137284252816213e-05,0.00024631671925830684,9.799764290179043,-4.6155707954243044e-10,5.330484785032523e-08,-4.9891055592582186e-08,0.9999999999999973,0.0;0.0;0.0;0.0;0.0;0.0;0.0;0.0;0.0,7.621289842063561e-05;0.0;0.0;0.0;7.621289842063561e-05;0.0;0.0;0.0;7.621289842063561e-05,3.999999975690116e-08;0.0;0.0;0.0;3.999999975690116e-08;0.0;0.0;0.0;3.999999975690116e-08
46,400000000,46.4,imu_link,-0.0005984074829257513,0.0038652407144309847,-0.004163245105075282,-4.204858394323506e-08,-5.582885273431874e-06,9.799863115463976,-4.615570795072043e-10,5.330484785044377e-08,-4.989105559258564e-08,0.9999999999999973,0.0;0.0;0.0;0.0;0.0;0.0;0.0;0.0;0.0,7.621289842063561e-05;0.0;0.0;0.0;7.621289842063561e-05;0.0;0.0;0.0;7.621289842063561e-05,3.999999975690116e-08;0.0;0.0;0.0;3.999999975690116e-08;0.0;0.0;0.0;3.999999975690116e-08
46,420000000,46.42,imu_link,0.008004595713635704,-0.01998751488561764,-0.011220466959110617,-0.0001240861556790817,0.00010781550866961246,9.800252360505485,-4.615570794344497e-10,5.3304847850733106e-08,-4.989105559258821e-08,0.9999999999999973,0.0;0.0;0.0;0.0;0.0;0.0;0.0;0.0;0.0,7.621289842063561e-05;0.0;0.0;0.0;7.621289842063561e-05;0.0;0.0;0.0;7.621289842063561e-05,3.999999975690116e-08;0.0;0.0;0.0;3.999999975690116e-08;0.0;0.0;0.0;3.999999975690116e-08
46,440000000,46.44,imu_link,-0.0029120474120330397,0.00034870041519889346,0.0015138004214629588,-0.0003056217386147049,0.0004500522297334413,9.80021489390612,-4.6155707939074837e-10,5.3304847850251905e-08,-4.9891055592591616e-08,0.9999999999999973,0.0;0.0;0.0;0.0;0.0;0.0;0.0;0.0;0.0,7.621289842063561e-05;0.0;0.0;0.0;7.621289842063561e-05;0.0;0.0;0.0;7.621289842063561e-05,3.999999975690116e-08;0.0;0.0;0.0;3.999999975690116e-08;0.0;0.0;0.0;3.999999975690116e-08
46,460000000,46.46,imu_link,0.005212551894974148,0.013942316788997287,0.014788584348979204,0.00011651967148569718,0.00023018859589625385,9.799668513154392,-4.615570794991857e-10,5.330484785034632e-08,-4.989105559259482e-08,0.9999999999999973,0.0;0.0;0.0;0.0;0.0;0.0;0.0;0.0;0.0,7.621289842063561e-05;0.0;0.0;0.0;7.621289842063561e-05;0.0;0.0;0.0;7.621289842063561e-05,3.999999975690116e-08;0.0;0.0;0.0;3.999999975690116e-08;0.0;0.0;0.0;3.999999975690116e-08
46,480000000,46.48,imu_link,0.008402477244348396,-0.006045321692605492,0.0020928213995988283,-3.956255080408955e-05,-0.00019981542532617402,9.799882540901747,-4.6155707955209315e-10,5.330484785068634e-08,-4.98910555925994e-08,0.9999999999999973,0.0;0.0;0.0;0.0;0.0;0.0;0.0;0.0;0.0,7.621289842063561e-05;0.0;0.0;0.0;7.621289842063561e-05;0.0;0.0;0.0;7.621289842063561e-05,3.999999975690116e-08;0.0;0.0;0.0;3.999999975690116e-08;0.0;0.0;0.0;3.999999975690116e-08
46,500000000,46.5,imu_link,-0.0008042807345685029,-0.013041901439563726,0.009010768003681367,-4.8626228852144285e-05,-4.9567292035148446e-05,9.800015942927027,-4.6155707950693865e-10,5.330484785078599e-08,-4.989105559260228e-08,0.9999999999999973,0.0;0.0;0.0;0.0;0.0;0.0;0.0;0.0;0.0,7.621289842063561e-05;0.0;0.0;0.0;7.621289842063561e-05;0.0;0.0;0.0;7.621289842063561e-05,3.999999975690116e-08;0.0;0.0;0.0;3.999999975690116e-08;0.0;0.0;0.0;3.999999975690116e-08
46,520000000,46.52,imu_link,0.009132602912104288,0.006855364354050269,0.004542279514790819,-0.00010558309013567029,-8.156894609420023e-05,9.79997099092886,-4.6155707947677903e-10,5.3304847850891646e-08,-4.9891055592605175e-08,0.9999999999999973,0.0;0.0;0.0;0.0;0.0;0.0;0.0;0.0;0.0,7.621289842063561e-05;0.0;0.0;0.0;7.621289842063561e-05;0.0;0.0;0.0;7.621289842063561e-05,3.999999975690116e-08;0.0;0.0;0.0;3.999999975690116e-08;0.0;0.0;0.0;3.999999975690116e-08
46,540000000,46.54,imu_link,-0.005427136265000232,0.011831019576082622,-0.002613201542488986,-0.00013939169821405045,0.00021002522066211875,9.799885660452025,-4.61557079438478e-10,5.330484785040827e-08,-4.9891055592610595e-08,0.9999999999999973,0.0;0.0;0.0;0.0;0.0;0.0;0.0;0.0;0.0,7.621289842063561e-05;0.0;0.0;0.0;7.621289842063561e-05;0.0;0.0;0.0;7.621289842063561e-05,3.999999975690116e-08;0.0;0.0;0.0;3.999999975690116e-08;0.0;0.0;0.0;3.999999975690116e-08
46,560000000,46.56,imu_link,0.009389355813380662,-0.010000315900926164,-0.008284291940747562,0.0004065830824141673,0.0002578319285112975,9.799903465726645,-4.6155707949489863e-10,5.330484785056623e-08,-4.989105559261479e-08,0.9999999999999973,0.0;0.0;0.0;0.0;0.0;0.0;0.0;0.0;0.0,7.621289842063561e-05;0.0;0.0;0.0;7.621289842063561e-05;0.0;0.0;0.0;7.621289842063561e-05,3.999999975690116e-08;0.0;0.0;0.0;3.999999975690116e-08;0.0;0.0;0.0;3.999999975690116e-08
46,580000000,46.58,imu_link,0.01894971705335975,-0.014228843048790176,0.00553750234200463,-5.6479133408716216e-05,-0.000466730509889515,9.80025573322284,-4.6155707955699947e-10,5.330484785025441e-08,-4.989105559261859e-08,0.9999999999999973,0.0;0.0;0.0;0.0;0.0;0.0;0.0;0.0;0.0,7.621289842063561e-05;0.0;0.0;0.0;7.621289842063561e-05;0.0;0.0;0.0;7.621289842063561e-05,3.999999975690116e-08;0.0;0.0;0.0;3.999999975690116e-08;0.0;0.0;0.0;3.999999975690116e-08
46,600000000,46.6,imu_link,-0.004831839702476328,0.007795391030181006,-0.007827730578501642,0.00025240446643517913,5.3316773840607474e-05,9.799667556540324,-4.6155707938388044e-10,5.330484785036839e-08,-4.98910555926228e-08,0.9999999999999973,0.0;0.0;0.0;0.0;0.0;0.0;0.0;0.0;0.0,7.621289842063561e-05;0.0;0.0;0.0;7.621289842063561e-05;0.0;0.0;0.0;7.621289842063561e-05,3.999999975690116e-08;0.0;0.0;0.0;3.999999975690116e-08;0.0;0.0;0.0;3.999999975690116e-08
46,620000000,46.62,imu_link,0.004116726870221784,0.015407227993281352,-0.017147350572044782,2.659991939314463e-06,-0.00018609608681662094,9.800237502967455,-4.615570795869456e-10,5.3304847850518925e-08,-4.98910555926284e-08,0.9999999999999973,0.0;0.0;0.0;0.0;0.0;0.0;0.0;0.0;0.0,7.621289842063561e-05;0.0;0.0;0.0;7.621289842063561e-05;0.0;0.0;0.0;7.621289842063561e-05,3.999999975690116e-08;0.0;0.0;0.0;3.999999975690116e-08;0.0;0.0;0.0;3.999999975690116e-08
46,640000000,46.64,imu_link,0.003173630898440375,0.0035132314510385814,-0.005786165579655946,-2.437304210859537e-05,0.00010506494070366172,9.800135193215485,-4.615570793894092e-10,5.330484785082051e-08,-4.9891055592633604e-08,0.9999999999999973,0.0;0.0;0.0;0.0;0.0;0.0;0.0;0.0;0.0,7.621289842063561e-05;0.0;0.0;0.0;7.621289842063561e-05;0.0;0.0;0.0;7.621289842063561e-05,3.999999975690116e-08;0.0;0.0;0.0;3.999999975690116e-08;0.0;0.0;0.0;3.999999975690116e-08
46,660000000,46.66,imu_link,0.011812907759439797,0.003996590933303828,-0.006541995401302083,0.0003479411456920368,9.53056106417289e-06,9.799793939293606,-4.615570795708701e-10,5.330484785038626e-08,-4.98910555926383e-08,0.9999999999999973,0.0;0.0;0.0;0.0;0.0;0.0;0.0;0.0;0.0,7.621289842063561e-05;0.0;0.0;0.0;7.621289842063561e-05;0.0;0.0;0.0;7.621289842063561e-05,3.999999975690116e-08;0.0;0.0;0.0;3.999999975690116e-08;0.0;0.0;0.0;3.999999975690116e-08
46,680000000,46.68,imu_link,-0.003415589656959212,0.012795750306989973,-0.0023706446447627643,0.00039485645506783526,-0.00012762554367136498,9.800124082492996,-4.615570795482391e-10,5.33048478504854e-08,-4.989105559264422e-08,0.9999999999999973,0.0;0.0;0.0;0.0;0.0;0.0;0.0;0.0;0.0,7.621289842063561e-05;0.0;0.0;0.0;7.621289842063561e-05;0.0;0.0;0.0;7.621289842063561e-05,3.999999975690116e-08;0.0;0.0;0.0;3.999999975690116e-08;0.0;0.0;0.0;3.999999975690116e-08
46,700000000,46.7,imu_link,0.003170691938167835,-0.010784371937048825,-0.006711448551594094,2.826400972170879e-05,0.00018548524534235487,9.800016993233646,-4.615570794743012e-10,5.3304847850671795e-08,-4.989105559265081e-08,0.9999999999999973,0.0;0.0;0.0;0.0;0.0;0.0;0.0;0.0;0.0,7.621289842063561e-05;0.0;0.0;0.0;7.621289842063561e-05;0.0;0.0;0.0;7.621289842063561e-05,3.999999975690116e-08;0.0;0.0;0.0;3.999999975690116e-08;0.0;0.0;0.0;3.999999975690116e-08
46,720000000,46.72,imu_link,0.002628817497246579,0.004829695911368522,0.007544008050365844,2.7303957580645494e-05,-3.86262315082407e-05,9.800274637430855,-4.6155707939101405e-10,5.330484785084553e-08,-4.98910555926555e-08,0.9999999999999973,0.0;0.0;0.0;0.0;0.0;0.0;0.0;0.0;0.0,7.621289842063561e-05;0.0;0.0;0.0;7.621289842063561e-05;0.0;0.0;0.0;7.621289842063561e-05,3.999999975690116e-08;0.0;0.0;0.0;3.999999975690116e-08;0.0;0.0;0.0;3.999999975690116e-08
46,740000000,46.74,imu_link,-0.0149677078247351,-4.184954010660243e-05,-0.0013477478333197178,-0.00014405096959426095,0.0002623346328345846,9.799773395177612,-4.615570793886254e-10,5.330484785029603e-08,-4.989105559265863e-08,0.9999999999999973,0.0;0.0;0.0;0.0;0.0;0.0;0.0;0.0;0.0,7.621289842063561e-05;0.0;0.0;0.0;7.621289842063561e-05;0.0;0.0;0.0;7.621289842063561e-05,3.999999975690116e-08;0.0;0.0;0.0;3.999999975690116e-08;0.0;0.0;0.0;3.999999975690116e-08
46,760000000,46.76,imu_link,-0.009837426165420543,0.012308535629788186,0.00747770413546297,-0.00030512223997698957,4.524372841961749e-05,9.799689006653136,-4.6155707945865457e-10,5.330484785057648e-08,-4.9891055592661675e-08,0.9999999999999973,0.0;0.0;0.0;0.0;0.0;0.0;0.0;0.0;0.0,7.621289842063561e-05;0.0;0.0;0.0;7.621289842063561e-05;0.0;0.0;0.0;7.621289842063561e-05,3.999999975690116e-08;0.0;0.0;0.0;3.999999975690116e-08;0.0;0.0;0.0;3.999999975690116e-08
46,780000000,46.78,imu_link,-0.00879758857877986,-0.00028437930156637747,0.0023175008380453862,0.00016682184242187617,0.00016636624160608061,9.799715780571706,-4.6155707966296725e-10,5.330484785071746e-08,-4.989105559266526e-08,0.9999999999999973,0.0;0.0;0.0;0.0;0.0;0.0;0.0;0.0;0.0,7.621289842063561e-05;0.0;0.0;0.0;7.621289842063561e-05;0.0;0.0;0.0;7.621289842063561e-05,3.999999975690116e-08;0.0;0.0;0.0;3.999999975690116e-08;0.0;0.0;0.0;3.999999975690116e-08
46,800000000,46.8,imu_link,0.003931920002972793,0.0074453164757694755,0.006531981381664764,0.0002093012996310294,5.736410374816161e-05,9.800091694424886,-4.615570793778322e-10,5.330484785029217e-08,-4.9891055592668815e-08,0.9999999999999973,0.0;0.0;0.0;0.0;0.0;0.0;0.0;0.0;0.0,7.621289842063561e-05;0.0;0.0;0.0;7.621289842063561e-05;0.0;0.0;0.0;7.621289842063561e-05,3.999999975690116e-08;0.0;0.0;0.0;3.999999975690116e-08;0.0;0.0;0.0;3.999999975690116e-08
46,820000000,46.82,imu_link,0.0027415923526343364,-0.0012689831284650491,0.004933285712602142,-0.00018500015256978254,-1.2498453301060236e-05,9.799959355818666,-4.615570794470025e-10,5.330484785045876e-08,-4.9891055592674665e-08,0.9999999999999973,0.0;0.0;0.0;0.0;0.0;0.0;0.0;0.0;0.0,7.621289842063561e-05;0.0;0.0;0.0;7.621289842063561e-05;0.0;0.0;0.0;7.621289842063561e-05,3.999999975690116e-08;0.0;0.0;0.0;3.999999975690116e-08;0.0;0.0;0.0;3.999999975690116e-08
46,840000000,46.84,imu_link,0.005502803181662654,0.004427121635193146,-0.0010139197296466728,-0.0002999682885970839,0.0001820402161338259,9.799780200290689,-4.6155707940926e-10,5.3304847850561925e-08,-4.989105559267925e-08,0.9999999999999973,0.0;0.0;0.0;0.0;0.0;0.0;0.0;0.0;0.0,7.621289842063561e-05;0.0;0.0;0.0;7.621289842063561e-05;0.0;0.0;0.0;7.621289842063561e-05,3.999999975690116e-08;0.0;0.0;0.0;3.999999975690116e-08;0.0;0.0;0.0;3.999999975690116e-08
46,860000000,46.86,imu_link,0.008081931111381826,0.01446416414856974,-0.00422875303517566,9.734135665309053e-05,0.00017926293382488379,9.80010491231805,-4.6155707938478884e-10,5.330484785066461e-08,-4.989105559268373e-08,0.9999999999999973,0.0;0.0;0.0;0.0;0.0;0.0;0.0;0.0;0.0,7.621289842063561e-05;0.0;0.0;0.0;7.621289842063561e-05;0.0;0.0;0.0;7.621289842063561e-05,3.999999975690116e-08;0.0;0.0;0.0;3.999999975690116e-08;0.0;0.0;0.0;3.999999975690116e-08
46,880000000,46.88,imu_link,-0.010971890312912465,-0.012258140083613903,0.0013654195225310424,5.1977457779838e-06,0.00013633767991898328,9.799766686199893,-4.6155707937976873e-10,5.330484785030097e-08,-4.9891055592688105e-08,0.9999999999999973,0.0;0.0;0.0;0.0;0.0;0.0;0.0;0.0;0.0,7.621289842063561e-05;0.0;0.0;0.0;7.621289842063561e-05;0.0;0.0;0.0;7.621289842063561e-05,3.999999975690116e-08;0.0;0.0;0.0;3.999999975690116e-08;0.0;0.0;0.0;3.999999975690116e-08
46,900000000,46.9,imu_link,-0.007971466583177319,0.009383894610290735,0.0008518077927553938,0.00013776008942516303,0.00031173615546144267,9.79977438035701,-4.6155707950541504e-10,5.330484785038634e-08,-4.989105559269198e-08,0.9999999999999973,0.0;0.0;0.0;0.0;0.0;0.0;0.0;0.0;0.0,7.621289842063561e-05;0.0;0.0;0.0;7.621289842063561e-05;0.0;0.0;0.0;7.621289842063561e-05,3.999999975690116e-08;0.0;0.0;0.0;3.999999975690116e-08;0.0;0.0;0.0;3.999999975690116e-08
46,920000000,46.92,imu_link,0.005219590182567516,-0.012795466091501763,-0.005162591643935518,0.000223726124620449,-6.396322139761633e-05,9.800202792952472,-4.6155707943998753e-10,5.330484785066655e-08,-4.989105559269619e-08,0.9999999999999973,0.0;0.0;0.0;0.0;0.0;0.0;0.0;0.0;0.0,7.621289842063561e-05;0.0;0.0;0.0;7.621289842063561e-05;0.0;0.0;0.0;7.621289842063561e-05,3.999999975690116e-08;0.0;0.0;0.0;3.999999975690116e-08;0.0;0.0;0.0;3.999999975690116e-08
46,940000000,46.94,imu_link,0.012006911495803484,-0.018433691284036578,0.009252281582737238,0.00018091982437146997,0.00016080461674957607,9.799628731404843,-4.6155707952724263e-10,5.330484785083305e-08,-4.989105559270302e-08,0.9999999999999973,0.0;0.0;0.0;0.0;0.0;0.0;0.0;0.0;0.0,7.621289842063561e-05;0.0;0.0;0.0;7.621289842063561e-05;0.0;0.0;0.0;7.621289842063561e-05,3.999999975690116e-08;0.0;0.0;0.0;3.999999975690116e-08;0.0;0.0;0.0;3.999999975690116e-08
46,960000000,46.96,imu_link,-0.0006774587750023782,-0.011076668732166985,0.0017525272344070648,9.746450113726393e-05,-8.074808572708515e-05,9.799988134426432,-4.6155707963757575e-10,5.3304847850470135e-08,-4.989105559270752e-08,0.9999999999999973,0.0;0.0;0.0;0.0;0.0;0.0;0.0;0.0;0.0,7.621289842063561e-05;0.0;0.0;0.0;7.621289842063561e-05;0.0;0.0;0.0;7.621289842063561e-05,3.999999975690116e-08;0.0;0.0;0.0;3.999999975690116e-08;0.0;0.0;0.0;3.999999975690116e-08
46,980000000,46.98,imu_link,0.0026303329976744326,0.012200657261170096,0.005469607960976991,9.424837568177579e-05,-1.1278842163646541e-05,9.799467025008655,-4.6155707955180715e-10,5.3304847850646874e-08,-4.9891055592714356e-08,0.9999999999999973,0.0;0.0;0.0;0.0;0.0;0.0;0.0;0.0;0.0,7.621289842063561e-05;0.0;0.0;0.0;7.621289842063561e-05;0.0;0.0;0.0;7.621289842063561e-05,3.999999975690116e-08;0.0;0.0;0.0;3.999999975690116e-08;0.0;0.0;0.0;3.999999975690116e-08
47,0,47.0,imu_link,0.0018167104601188977,0.013360680958751824,0.003435642999627634,0.000196302924735881,8.287839810440944e-05,9.799796756252228,-4.6155707939994646e-10,5.3304847850579786e-08,-4.98910555927179e-08,0.9999999999999973,0.0;0.0;0.0;0.0;0.0;0.0;0.0;0.0;0.0,7.621289842063561e-05;0.0;0.0;0.0;7.621289842063561e-05;0.0;0.0;0.0;7.621289842063561e-05,3.999999975690116e-08;0.0;0.0;0.0;3.999999975690116e-08;0.0;0.0;0.0;3.999999975690116e-08
47,20000000,47.02,imu_link,-0.0012238453797215622,0.000984548586127012,0.005335095138851149,4.079510958886476e-05,0.00016527461985479846,9.799487599280214,-4.615570794689825e-10,5.330484785026843e-08,-4.989105559272449e-08,0.9999999999999973,0.0;0.0;0.0;0.0;0.0;0.0;0.0;0.0;0.0,7.621289842063561e-05;0.0;0.0;0.0;7.621289842063561e-05;0.0;0.0;0.0;7.621289842063561e-05,3.999999975690116e-08;0.0;0.0;0.0;3.999999975690116e-08;0.0;0.0;0.0;3.999999975690116e-08
47,40000000,47.04,imu_link,0.006214014570959141,0.008394048013417433,0.007395520620213674,0.0001662951027287478,-0.00010800562548927896,9.799785455141278,-4.615570795545231e-10,5.330484785042558e-08,-4.989105559273431e-08,0.9999999999999973,0.0;0.0;0.0;0.0;0.0;0.0;0.0;0.0;0.0,7.621289842063561e-05;0.0;0.0;0.0;7.621289842063561e-05;0.0;0.0;0.0;7.621289842063561e-05,3.999999975690116e-08;0.0;0.0;0.0;3.999999975690116e-08;0.0;0.0;0.0;3.999999975690116e-08
47,60000000,47.06,imu_link,0.0006050533646601879,-0.008029758066909847,0.00634863897544882,-0.00040296606045231307,0.0002334002271986716,9.799438646874515,-4.61557079500628e-10,5.3304847850714716e-08,-4.989105559274373e-08,0.9999999999999973,0.0;0.0;0.0;0.0;0.0;0.0;0.0;0.0;0.0,7.621289842063561e-05;0.0;0.0;0.0;7.621289842063561e-05;0.0;0.0;0.0;7.621289842063561e-05,3.999999975690116e-08;0.0;0.0;0.0;3.999999975690116e-08;0.0;0.0;0.0;3.999999975690116e-08
47,80000000,47.08,imu_link,0.0036374902927247383,0.004961184563988156,0.009769719002436696,-3.509488318196856e-05,-1.2721606456969904e-05,9.799821356842529,-4.615570793361855e-10,5.330484785082165e-08,-4.989105559275193e-08,0.9999999999999973,0.0;0.0;0.0;0.0;0.0;0.0;0.0;0.0;0.0,7.621289842063561e-05;0.0;0.0;0.0;7.621289842063561e-05;0.0;0.0;0.0;7.621289842063561e-05,3.999999975690116e-08;0.0;0.0;0.0;3.999999975690116e-08;0.0;0.0;0.0;3.999999975690116e-08
47,100000000,47.1,imu_link,-0.01776242470062362,0.000580517494755514,0.008465056483473971,0.00033086169790036993,-0.0002627043816056347,9.79994292239451,-4.6155707958168936e-10,5.330484785031501e-08,-4.989105559275931e-08,0.9999999999999973,0.0;0.0;0.0;0.0;0.0;0.0;0.0;0.0;0.0,7.621289842063561e-05;0.0;0.0;0.0;7.621289842063561e-05;0.0;0.0;0.0;7.621289842063561e-05,3.999999975690116e-08;0.0;0.0;0.0;3.999999975690116e-08;0.0;0.0;0.0;3.999999975690116e-08
47,120000000,47.12,imu_link,-0.00970481435063433,-0.007121378393350033,7.76216422782487e-05,6.845056463396729e-05,-0.0002485247290447282,9.799587843782529,-4.6155707957355306e-10,5.33048478504291e-08,-4.9891055592766985e-08,0.9999999999999973,0.0;0.0;0.0;0.0;0.0;0.0;0.0;0.0;0.0,7.621289842063561e-05;0.0;0.0;0.0;7.621289842063561e-05;0.0;0.0;0.0;7.621289842063561e-05,3.999999975690116e-08;0.0;0.0;0.0;3.999999975690116e-08;0.0;0.0;0.0;3.999999975690116e-08
47,140000000,47.14,imu_link,-0.007296831638454615,0.0019389294895853018,0.014244854410539676,5.644617726330212e-05,-0.00029644814098533814,9.79995535925891,-4.615570796536402e-10,5.3304847850715927e-08,-4.9891055592774846e-08,0.9999999999999973,0.0;0.0;0.0;0.0;0.0;0.0;0.0;0.0;0.0,7.621289842063561e-05;0.0;0.0;0.0;7.621289842063561e-05;0.0;0.0;0.0;7.621289842063561e-05,3.999999975690116e-08;0.0;0.0;0.0;3.999999975690116e-08;0.0;0.0;0.0;3.999999975690116e-08
47,160000000,47.16,imu_link,-0.00632749179934152,-0.003527957766954795,-0.003987963635185882,0.0003146366725667038,0.00019183208103314261,9.799763083316808,-4.615570793784825e-10,5.3304847850313335e-08,-4.9891055592780895e-08,0.9999999999999973,0.0;0.0;0.0;0.0;0.0;0.0;0.0;0.0;0.0,7.621289842063561e-05;0.0;0.0;0.0;7.621289842063561e-05;0.0;0.0;0.0;7.621289842063561e-05,3.999999975690116e-08;0.0;0.0;0.0;3.999999975690116e-08;0.0;0.0;0.0;3.999999975690116e-08
47,180000000,47.18,imu_link,-0.0014280993523765428,0.003090521116664625,0.006448812281565281,0.00016257880195890095,-0.00019779013153147087,9.799926945694711,-4.6155707946234866e-10,5.330484785048291e-08,-4.989105559278901e-08,0.9999999999999973,0.0;0.0;0.0;0.0;0.0;0.0;0.0;0.0;0.0,7.621289842063561e-05;0.0;0.0;0.0;7.621289842063561e-05;0.0;0.0;0.0;7.621289842063561e-05,3.999999975690116e-08;0.0;0.0;0.0;3.999999975690116e-08;0.0;0.0;0.0;3.999999975690116e-08
47,200000000,47.2,imu_link,0.011709748112035737,0.00869051101184127,0.01839937810889466,-0.00024287880310118183,1.662290844216003e-05,9.800049993253023,-4.615570794341725e-10,5.330484785058302e-08,-4.989105559279723e-08,0.9999999999999973,0.0;0.0;0.0;0.0;0.0;0.0;0.0;0.0;0.0,7.621289842063561e-05;0.0;0.0;0.0;7.621289842063561e-05;0.0;0.0;0.0;7.621289842063561e-05,3.999999975690116e-08;0.0;0.0;0.0;3.999999975690116e-08;0.0;0.0;0.0;3.999999975690116e-08
47,220000000,47.22,imu_link,-0.002213595188321156,0.011629291998219164,0.007276435956697615,0.0001072160361819275,0.00021022104776233046,9.799879077157371,-4.615570795416005e-10,5.3304847850672007e-08,-4.989105559280275e-08,0.9999999999999973,0.0;0.0;0.0;0.0;0.0;0.0;0.0;0.0;0.0,7.621289842063561e-05;0.0;0.0;0.0;7.621289842063561e-05;0.0;0.0;0.0;7.621289842063561e-05,3.999999975690116e-08;0.0;0.0;0.0;3.999999975690116e-08;0.0;0.0;0.0;3.999999975690116e-08
47,240000000,47.24,imu_link,0.0039084528532389775,-0.005885136548236171,0.002585299664121493,-0.00015794060994029269,0.000355703009063423,9.800115991178641,-4.6155707937604187e-10,5.3304847850325716e-08,-4.989105559281119e-08,0.9999999999999973,0.0;0.0;0.0;0.0;0.0;0.0;0.0;0.0;0.0,7.621289842063561e-05;0.0;0.0;0.0;7.621289842063561e-05;0.0;0.0;0.0;7.621289842063561e-05,3.999999975690116e-08;0.0;0.0;0.0;3.999999975690116e-08;0.0;0.0;0.0;3.999999975690116e-08
47,260000000,47.26,imu_link,-0.0007263050454472711,-0.0067034661145677025,-0.0037559900614668037,8.597310320691847e-05,7.392170861890104e-05,9.800064585000554,-4.6155707944468576e-10,5.3304847850490404e-08,-4.989105559281997e-08,0.9999999999999973,0.0;0.0;0.0;0.0;0.0;0.0;0.0;0.0;0.0,7.621289842063561e-05;0.0;0.0;0.0;7.621289842063561e-05;0.0;0.0;0.0;7.621289842063561e-05,3.999999975690116e-08;0.0;0.0;0.0;3.999999975690116e-08;0.0;0.0;0.0;3.999999975690116e-08
47,280000000,47.28,imu_link,-0.006408319241199133,-0.0075438757914096195,-0.01127318137834701,0.00040239807433630045,0.0003952748030942463,9.799945669537241,-4.6155707938011667e-10,5.330484785066454e-08,-4.989105559282944e-08,0.9999999999999973,0.0;0.0;0.0;0.0;0.0;0.0;0.0;0.0;0.0,7.621289842063561e-05;0.0;0.0;0.0;7.621289842063561e-05;0.0;0.0;0.0;7.621289842063561e-05,3.999999975690116e-08;0.0;0.0;0.0;3.999999975690116e-08;0.0;0.0;0.0;3.999999975690116e-08
47,300000000,47.3,imu_link,-0.002721386297566036,-0.005267834484789924,0.0055940011944344515,-0.0002710882350114599,0.00018100675450154926,9.799860821423273,-4.615570794706705e-10,5.330484785083535e-08,-4.989105559283695e-08,0.9999999999999973,0.0;0.0;0.0;0.0;0.0;0.0;0.0;0.0;0.0,7.621289842063561e-05;0.0;0.0;0.0;7.621289842063561e-05;0.0;0.0;0.0;7.621289842063561e-05,3.999999975690116e-08;0.0;0.0;0.0;3.999999975690116e-08;0.0;0.0;0.0;3.999999975690116e-08
47,320000000,47.32,imu_link,-0.000521018984328837,0.0055088812934882166,-0.0009344637560649258,1.832176781862479e-05,-8.288020490376128e-05,9.799665661852636,-4.615570794882606e-10,5.3304847850290696e-08,-4.9891055592844455e-08,0.9999999999999973,0.0;0.0;0.0;0.0;0.0;0.0;0.0;0.0;0.0,7.621289842063561e-05;0.0;0.0;0.0;7.621289842063561e-05;0.0;0.0;0.0;7.621289842063561e-05,3.999999975690116e-08;0.0;0.0;0.0;3.999999975690116e-08;0.0;0.0;0.0;3.999999975690116e-08
47,340000000,47.34,imu_link,0.008267815312286285,-0.0018673350170985796,0.01098475442985735,0.00039083312737906556,-8.742631309766146e-05,9.799934132858526,-4.615570794118319e-10,5.3304847850573195e-08,-4.9891055592853905e-08,0.9999999999999973,0.0;0.0;0.0;0.0;0.0;0.0;0.0;0.0;0.0,7.621289842063561e-05;0.0;0.0;0.0;7.621289842063561e-05;0.0;0.0;0.0;7.621289842063561e-05,3.999999975690116e-08;0.0;0.0;0.0;3.999999975690116e-08;0.0;0.0;0.0;3.999999975690116e-08
47,360000000,47.36,imu_link,0.004016903271886791,0.003835847832278409,0.00015449174730756293,-0.00012429966476059664,-0.00026220308978076076,9.799808461878513,-4.6155707937496323e-10,5.33048478505592e-08,-4.989105559286198e-08,0.9999999999999973,0.0;0.0;0.0;0.0;0.0;0.0;0.0;0.0;0.0,7.621289842063561e-05;0.0;0.0;0.0;7.621289842063561e-05;0.0;0.0;0.0;7.621289842063561e-05,3.999999975690116e-08;0.0;0.0;0.0;3.999999975690116e-08;0.0;0.0;0.0;3.999999975690116e-08
47,380000000,47.38,imu_link,-0.006650375503357193,-0.003534154387977234,-0.005147449895745912,0.00016530519013840676,7.02879371921163e-05,9.800035594440782,-4.6155707968823917e-10,5.330484785088511e-08,-4.989105559287037e-08,0.9999999999999973,0.0;0.0;0.0;0.0;0.0;0.0;0.0;0.0;0.0,7.621289842063561e-05;0.0;0.0;0.0;7.621289842063561e-05;0.0;0.0;0.0;7.621289842063561e-05,3.999999975690116e-08;0.0;0.0;0.0;3.999999975690116e-08;0.0;0.0;0.0;3.999999975690116e-08
47,400000000,47.4,imu_link,-0.003302580918891134,0.002604478579485346,0.00483975257838633,0.00014720651202841285,0.00012066498916358639,9.799712755035168,-4.615570794035258e-10,5.3304847850471465e-08,-4.989105559287718e-08,0.9999999999999973,0.0;0.0;0.0;0.0;0.0;0.0;0.0;0.0;0.0,7.621289842063561e-05;0.0;0.0;0.0;7.621289842063561e-05;0.0;0.0;0.0;7.621289842063561e-05,3.999999975690116e-08;0.0;0.0;0.0;3.999999975690116e-08;0.0;0.0;0.0;3.999999975690116e-08
47,420000000,47.42,imu_link,0.012222043722586241,0.002383412708643207,0.0060893297467345614,-7.813699689579009e-06,0.0005201917987883263,9.79975395873716,-4.615570795079816e-10,5.330484785062547e-08,-4.989105559288798e-08,0.9999999999999973,0.0;0.0;0.0;0.0;0.0;0.0;0.0;0.0;0.0,7.621289842063561e-05;0.0;0.0;0.0;7.621289842063561e-05;0.0;0.0;0.0;7.621289842063561e-05,3.999999975690116e-08;0.0;0.0;0.0;3.999999975690116e-08;0.0;0.0;0.0;3.999999975690116e-08
47,440000000,47.44,imu_link,-0.00412241500550323,0.005996465052290212,0.004788721006743469,0.0002143958738076655,-0.000146874990954594,9.799662888066202,-4.615570793440146e-10,5.330484785073604e-08,-4.989105559289724e-08,0.9999999999999973,0.0;0.0;0.0;0.0;0.0;0.0;0.0;0.0;0.0,7.621289842063561e-05;0.0;0.0;0.0;7.621289842063561e-05;0.0;0.0;0.0;7.621289842063561e-05,3.999999975690116e-08;0.0;0.0;0.0;3.999999975690116e-08;0.0;0.0;0.0;3.999999975690116e-08
47,460000000,47.46,imu_link,0.00027751164701883974,-0.010643429552206443,-0.0068428000565895816,0.0001792665142592235,0.0002719883098558078,9.799996771403247,-4.615570794371845e-10,5.330484785082913e-08,-4.9891055592902954e-08,0.9999999999999973,0.0;0.0;0.0;0.0;0.0;0.0;0.0;0.0;0.0,7.621289842063561e-05;0.0;0.0;0.0;7.621289842063561e-05;0.0;0.0;0.0;7.621289842063561e-05,3.999999975690116e-08;0.0;0.0;0.0;3.999999975690116e-08;0.0;0.0;0.0;3.999999975690116e-08
47,480000000,47.48,imu_link,-0.005081466560608223,0.0057203089209921084,-0.008721057370677724,-3.059104442718671e-05,0.00012653293081759745,9.799704500024609,-4.6155707941029666e-10,5.330484785046375e-08,-4.989105559290893e-08,0.9999999999999973,0.0;0.0;0.0;0.0;0.0;0.0;0.0;0.0;0.0,7.621289842063561e-05;0.0;0.0;0.0;7.621289842063561e-05;0.0;0.0;0.0;7.621289842063561e-05,3.999999975690116e-08;0.0;0.0;0.0;3.999999975690116e-08;0.0;0.0;0.0;3.999999975690116e-08
47,500000000,47.5,imu_link,-0.002145796116341412,0.00046212866876100406,-0.007058051799169235,0.0005008127861410446,0.00013243067103928773,9.800039420149503,-4.615570794770994e-10,5.330484785062608e-08,-4.989105559291499e-08,0.9999999999999973,0.0;0.0;0.0;0.0;0.0;0.0;0.0;0.0;0.0,7.621289842063561e-05;0.0;0.0;0.0;7.621289842063561e-05;0.0;0.0;0.0;7.621289842063561e-05,3.999999975690116e-08;0.0;0.0;0.0;3.999999975690116e-08;0.0;0.0;0.0;3.999999975690116e-08
47,520000000,47.52,imu_link,-0.012593542337758189,0.007426518020410571,-0.005080216787779643,8.380499442917727e-05,-0.00011304520116462842,9.799494263746224,-4.615570795914037e-10,5.330484785060444e-08,-4.989105559291955e-08,0.9999999999999973,0.0;0.0;0.0;0.0;0.0;0.0;0.0;0.0;0.0,7.621289842063561e-05;0.0;0.0;0.0;7.621289842063561e-05;0.0;0.0;0.0;7.621289842063561e-05,3.999999975690116e-08;0.0;0.0;0.0;3.999999975690116e-08;0.0;0.0;0.0;3.999999975690116e-08
47,540000000,47.54,imu_link,-0.0026126073052612575,0.011339262209736163,0.0020343962832577024,1.6496716453187697e-05,0.0001207803082993624,9.799582749381958,-4.615570794183887e-10,5.330484785024987e-08,-4.9891055592925704e-08,0.9999999999999973,0.0;0.0;0.0;0.0;0.0;0.0;0.0;0.0;0.0,7.621289842063561e-05;0.0;0.0;0.0;7.621289842063561e-05;0.0;0.0;0.0;7.621289842063561e-05,3.999999975690116e-08;0.0;0.0;0.0;3.999999975690116e-08;0.0;0.0;0.0;3.999999975690116e-08
47,560000000,47.56,imu_link,0.011020930082370688,0.010464255482896785,-0.007427442187720749,-5.8777074192949076e-05,2.695305270404634e-05,9.79987480864854,-4.615570794841954e-10,5.3304847850408474e-08,-4.9891055592931514e-08,0.9999999999999973,0.0;0.0;0.0;0.0;0.0;0.0;0.0;0.0;0.0,7.621289842063561e-05;0.0;0.0;0.0;7.621289842063561e-05;0.0;0.0;0.0;7.621289842063561e-05,3.999999975690116e-08;0.0;0.0;0.0;3.999999975690116e-08;0.0;0.0;0.0;3.999999975690116e-08
47,580000000,47.58,imu_link,0.0020891758537192927,0.008048677117725268,-0.005106785958378519,6.999711381149064e-05,9.59104998077909e-05,9.80020107085521,-4.615570795345039e-10,5.330484785074954e-08,-4.9891055592937344e-08,0.9999999999999973,0.0;0.0;0.0;0.0;0.0;0.0;0.0;0.0;0.0,7.621289842063561e-05;0.0;0.0;0.0;7.621289842063561e-05;0.0;0.0;0.0;7.621289842063561e-05,3.999999975690116e-08;0.0;0.0;0.0;3.999999975690116e-08;0.0;0.0;0.0;3.999999975690116e-08
47,600000000,47.6,imu_link,0.00010614775366632275,0.005702323075730917,-0.00579273481216534,0.0005173536709375573,0.00035719513900907783,9.799818475107571,-4.6155707937046326e-10,5.330484785027849e-08,-4.989105559294178e-08,0.9999999999999973,0.0;0.0;0.0;0.0;0.0;0.0;0.0;0.0;0.0,7.621289842063561e-05;0.0;0.0;0.0;7.621289842063561e-05;0.0;0.0;0.0;7.621289842063561e-05,3.999999975690116e-08;0.0;0.0;0.0;3.999999975690116e-08;0.0;0.0;0.0;3.999999975690116e-08
47,620000000,47.62,imu_link,-0.0019546403176246433,0.0029663964744749706,0.013616759856415285,0.0003745818584935849,-3.847626808430973e-05,9.799790291546445,-4.6155707946432143e-10,5.330484785044359e-08,-4.989105559294754e-08,0.9999999999999973,0.0;0.0;0.0;0.0;0.0;0.0;0.0;0.0;0.0,7.621289842063561e-05;0.0;0.0;0.0;7.621289842063561e-05;0.0;0.0;0.0;7.621289842063561e-05,3.999999975690116e-08;0.0;0.0;0.0;3.999999975690116e-08;0.0;0.0;0.0;3.999999975690116e-08
47,640000000,47.64,imu_link,-0.0023746338189181773,0.004057236517738153,-0.014689601637905099,0.00010966904449048788,0.00023544249782621259,9.79998971445415,-4.6155707953684315e-10,5.330484785059815e-08,-4.989105559295395e-08,0.9999999999999973,0.0;0.0;0.0;0.0;0.0;0.0;0.0;0.0;0.0,7.621289842063561e-05;0.0;0.0;0.0;7.621289842063561e-05;0.0;0.0;0.0;7.621289842063561e-05,3.999999975690116e-08;0.0;0.0;0.0;3.999999975690116e-08;0.0;0.0;0.0;3.999999975690116e-08
47,660000000,47.66,imu_link,0.007039122233079988,-0.00574694133415412,0.005257867118402045,-0.00023963453627300784,0.00011597284537278539,9.799827581244093,-4.6155707938231945e-10,5.330484785071597e-08,-4.989105559295944e-08,0.9999999999999973,0.0;0.0;0.0;0.0;0.0;0.0;0.0;0.0;0.0,7.621289842063561e-05;0.0;0.0;0.0;7.621289842063561e-05;0.0;0.0;0.0;7.621289842063561e-05,3.999999975690116e-08;0.0;0.0;0.0;3.999999975690116e-08;0.0;0.0;0.0;3.999999975690116e-08
47,680000000,47.68,imu_link,-0.0031148791760548284,-0.007179125570943787,0.008849913337605016,0.00021157813047603706,0.000295070983041181,9.799833598290252,-4.6155707960308506e-10,5.330484785041349e-08,-4.989105559296537e-08,0.9999999999999973,0.0;0.0;0.0;0.0;0.0;0.0;0.0;0.0;0.0,7.621289842063561e-05;0.0;0.0;0.0;7.621289842063561e-05;0.0;0.0;0.0;7.621289842063561e-05,3.999999975690116e-08;0.0;0.0;0.0;3.999999975690116e-08;0.0;0.0;0.0;3.999999975690116e-08
47,700000000,47.7,imu_link,0.0029067320538412452,-0.005420049796518176,-0.015071970942483684,0.00015627678713037136,0.000233297282316902,9.799893451529918,-4.615570794536801e-10,5.330484785053073e-08,-4.9891055592970736e-08,0.9999999999999973,0.0;0.0;0.0;0.0;0.0;0.0;0.0;0.0;0.0,7.621289842063561e-05;0.0;0.0;0.0;7.621289842063561e-05;0.0;0.0;0.0;7.621289842063561e-05,3.999999975690116e-08;0.0;0.0;0.0;3.999999975690116e-08;0.0;0.0;0.0;3.999999975690116e-08
47,720000000,47.72,imu_link,0.009897410784327586,-0.008012524292634453,0.009863737503630168,0.00025832459481770934,0.0002985720594839954,9.799914483890435,-4.6155707954510156e-10,5.3304847850688405e-08,-4.9891055592977095e-08,0.9999999999999973,0.0;0.0;0.0;0.0;0.0;0.0;0.0;0.0;0.0,7.621289842063561e-05;0.0;0.0;0.0;7.621289842063561e-05;0.0;0.0;0.0;7.621289842063561e-05,3.999999975690116e-08;0.0;0.0;0.0;3.999999975690116e-08;0.0;0.0;0.0;3.999999975690116e-08
47,740000000,47.74,imu_link,0.0058273215604764395,0.004260866495165132,0.011159698302143941,0.00022878486347463188,-7.878105805891646e-05,9.80011402779618,-4.6155707938062026e-10,5.3304847850333835e-08,-4.989105559298127e-08,0.9999999999999973,0.0;0.0;0.0;0.0;0.0;0.0;0.0;0.0;0.0,7.621289842063561e-05;0.0;0.0;0.0;7.621289842063561e-05;0.0;0.0;0.0;7.621289842063561e-05,3.999999975690116e-08;0.0;0.0;0.0;3.999999975690116e-08;0.0;0.0;0.0;3.999999975690116e-08
47,760000000,47.76,imu_link,0.011378905148864115,-0.014342145975710988,-0.003874514561705795,8.226140302372468e-05,4.543499973218143e-05,9.79979288881208,-4.615570796065305e-10,5.330484785047857e-08,-4.989105559298757e-08,0.9999999999999973,0.0;0.0;0.0;0.0;0.0;0.0;0.0;0.0;0.0,7.621289842063561e-05;0.0;0.0;0.0;7.621289842063561e-05;0.0;0.0;0.0;7.621289842063561e-05,3.999999975690116e-08;0.0;0.0;0.0;3.999999975690116e-08;0.0;0.0;0.0;3.999999975690116e-08
47,780000000,47.78,imu_link,0.00959482355574122,-0.0022319060067931096,-0.001798139512848088,3.634625054507948e-05,0.0004108832184026592,9.800218736375781,-4.6155707945091216e-10,5.330484785060151e-08,-4.989105559299107e-08,0.9999999999999973,0.0;0.0;0.0;0.0;0.0;0.0;0.0;0.0;0.0,7.621289842063561e-05;0.0;0.0;0.0;7.621289842063561e-05;0.0;0.0;0.0;7.621289842063561e-05,3.999999975690116e-08;0.0;0.0;0.0;3.999999975690116e-08;0.0;0.0;0.0;3.999999975690116e-08
47,800000000,47.8,imu_link,0.0009124040076104702,-0.0030459255052633504,-0.01296270398846826,0.00029058651410476176,-8.177093294213458e-05,9.79999876158896,-4.615570795417013e-10,5.330484785077014e-08,-4.9891055592995995e-08,0.9999999999999973,0.0;0.0;0.0;0.0;0.0;0.0;0.0;0.0;0.0,7.621289842063561e-05;0.0;0.0;0.0;7.621289842063561e-05;0.0;0.0;0.0;7.621289842063561e-05,3.999999975690116e-08;0.0;0.0;0.0;3.999999975690116e-08;0.0;0.0;0.0;3.999999975690116e-08
47,820000000,47.82,imu_link,0.01611778595808321,-0.0005146315065042268,0.01130359581730668,0.00020878490336601258,-0.0004008238437358838,9.79980936769714,-4.6155707948653764e-10,5.330484785040762e-08,-4.989105559299842e-08,0.9999999999999973,0.0;0.0;0.0;0.0;0.0;0.0;0.0;0.0;0.0,7.621289842063561e-05;0.0;0.0;0.0;7.621289842063561e-05;0.0;0.0;0.0;7.621289842063561e-05,3.999999975690116e-08;0.0;0.0;0.0;3.999999975690116e-08;0.0;0.0;0.0;3.999999975690116e-08
47,840000000,47.84,imu_link,0.002078991269564292,-0.009110896798843384,-0.006116859935602378,0.00025908669800927024,0.00019661038705234008,9.800141878991985,-4.615570795881824e-10,5.3304847850502574e-08,-4.989105559300208e-08,0.9999999999999973,0.0;0.0;0.0;0.0;0.0;0.0;0.0;0.0;0.0,7.621289842063561e-05;0.0;0.0;0.0;7.621289842063561e-05;0.0;0.0;0.0;7.621289842063561e-05,3.999999975690116e-08;0.0;0.0;0.0;3.999999975690116e-08;0.0;0.0;0.0;3.999999975690116e-08
47,860000000,47.86,imu_link,-0.011709729541099674,0.0008476699922833964,-0.0021391877405414045,-7.439526429814207e-05,-0.0002450796169238687,9.79961040877798,-4.615570795612698e-10,5.330484785050092e-08,-4.989105559300557e-08,0.9999999999999973,0.0;0.0;0.0;0.0;0.0;0.0;0.0;0.0;0.0,7.621289842063561e-05;0.0;0.0;0.0;7.621289842063561e-05;0.0;0.0;0.0;7.621289842063561e-05,3.999999975690116e-08;0.0;0.0;0.0;3.999999975690116e-08;0.0;0.0;0.0;3.999999975690116e-08
47,880000000,47.88,imu_link,-0.00968394312256511,-0.007909600861459615,0.001734987652766091,0.00024977457038276817,0.0002779701931329219,9.79977994568171,-4.6155707949146024e-10,5.330484785067526e-08,-4.989105559300927e-08,0.9999999999999973,0.0;0.0;0.0;0.0;0.0;0.0;0.0;0.0;0.0,7.621289842063561e-05;0.0;0.0;0.0;7.621289842063561e-05;0.0;0.0;0.0;7.621289842063561e-05,3.999999975690116e-08;0.0;0.0;0.0;3.999999975690116e-08;0.0;0.0;0.0;3.999999975690116e-08
47,900000000,47.9,imu_link,0.018566866058494086,-0.0028779962489819894,-0.0033691128683069724,-4.614692230444061e-06,0.0004716233094338876,9.799737107364596,-4.6155707946316136e-10,5.3304847850311985e-08,-4.98910555930119e-08,0.9999999999999973,0.0;0.0;0.0;0.0;0.0;0.0;0.0;0.0;0.0,7.621289842063561e-05;0.0;0.0;0.0;7.621289842063561e-05;0.0;0.0;0.0;7.621289842063561e-05,3.999999975690116e-08;0.0;0.0;0.0;3.999999975690116e-08;0.0;0.0;0.0;3.999999975690116e-08
47,920000000,47.92,imu_link,-0.001007743561486534,8.743102418131863e-05,0.0033225929900393644,1.284107861601285e-05,0.0001769842604502827,9.799644048076555,-4.61557079391764e-10,5.330484785060739e-08,-4.989105559301489e-08,0.9999999999999973,0.0;0.0;0.0;0.0;0.0;0.0;0.0;0.0;0.0,7.621289842063561e-05;0.0;0.0;0.0;7.621289842063561e-05;0.0;0.0;0.0;7.621289842063561e-05,3.999999975690116e-08;0.0;0.0;0.0;3.999999975690116e-08;0.0;0.0;0.0;3.999999975690116e-08
47,940000000,47.94,imu_link,0.011922562606722751,-0.02213333960225194,-0.00810599827037382,0.0003445579687072292,-7.021429723331912e-05,9.79964892376482,-4.6155707947800667e-10,5.33048478507728e-08,-4.98910555930192e-08,0.9999999999999973,0.0;0.0;0.0;0.0;0.0;0.0;0.0;0.0;0.0,7.621289842063561e-05;0.0;0.0;0.0;7.621289842063561e-05;0.0;0.0;0.0;7.621289842063561e-05,3.999999975690116e-08;0.0;0.0;0.0;3.999999975690116e-08;0.0;0.0;0.0;3.999999975690116e-08
47,960000000,47.96,imu_link,-0.0007790328149523016,0.01034178953127465,0.002389941879347097,0.000476491270509451,0.00010429438656193946,9.799771582774872,-4.615570794653849e-10,5.330484785088193e-08,-4.9891055593020254e-08,0.9999999999999973,0.0;0.0;0.0;0.0;0.0;0.0;0.0;0.0;0.0,7.621289842063561e-05;0.0;0.0;0.0;7.621289842063561e-05;0.0;0.0;0.0;7.621289842063561e-05,3.999999975690116e-08;0.0;0.0;0.0;3.999999975690116e-08;0.0;0.0;0.0;3.999999975690116e-08
47,980000000,47.98,imu_link,-0.01198763423388114,-0.002199877713284673,0.002745823755743628,-1.0085143172300617e-05,9.008663772827038e-05,9.799606762379403,-4.6155707954497945e-10,5.3304847850580534e-08,-4.989105559302309e-08,0.9999999999999973,0.0;0.0;0.0;0.0;0.0;0.0;0.0;0.0;0.0,7.621289842063561e-05;0.0;0.0;0.0;7.621289842063561e-05;0.0;0.0;0.0;7.621289842063561e-05,3.999999975690116e-08;0.0;0.0;0.0;3.999999975690116e-08;0.0;0.0;0.0;3.999999975690116e-08
48,0,48.0,imu_link,-0.007446645224526799,0.007697880217112341,-0.0055900232065122625,0.00028169811249219084,-2.803066593338866e-05,9.799789978360641,-4.6155707967072057e-10,5.330484785066979e-08,-4.989105559302504e-08,0.9999999999999973,0.0;0.0;0.0;0.0;0.0;0.0;0.0;0.0;0.0,7.621289842063561e-05;0.0;0.0;0.0;7.621289842063561e-05;0.0;0.0;0.0;7.621289842063561e-05,3.999999975690116e-08;0.0;0.0;0.0;3.999999975690116e-08;0.0;0.0;0.0;3.999999975690116e-08
48,20000000,48.02,imu_link,-0.008899940873468168,0.012580551485797136,-0.006208939146586971,8.301813402255877e-05,0.0002835853304569147,9.799708261425135,-4.615570794126453e-10,5.3304847850265e-08,-4.989105559302672e-08,0.9999999999999973,0.0;0.0;0.0;0.0;0.0;0.0;0.0;0.0;0.0,7.621289842063561e-05;0.0;0.0;0.0;7.621289842063561e-05;0.0;0.0;0.0;7.621289842063561e-05,3.999999975690116e-08;0.0;0.0;0.0;3.999999975690116e-08;0.0;0.0;0.0;3.999999975690116e-08
48,40000000,48.04,imu_link,0.001858939666056642,-0.00459770741390582,-0.0039691679687443495,-3.8465345983759415e-05,0.00021108739786046934,9.799834389178415,-4.615570794068802e-10,5.330484785036384e-08,-4.989105559302999e-08,0.9999999999999973,0.0;0.0;0.0;0.0;0.0;0.0;0.0;0.0;0.0,7.621289842063561e-05;0.0;0.0;0.0;7.621289842063561e-05;0.0;0.0;0.0;7.621289842063561e-05,3.999999975690116e-08;0.0;0.0;0.0;3.999999975690116e-08;0.0;0.0;0.0;3.999999975690116e-08
48,60000000,48.06,imu_link,0.005754861339496386,0.0021092789882520458,0.008571492545496221,0.0003134025843857941,-0.00019693191498041851,9.799664113041803,-4.6155707944053533e-10,5.330484785059899e-08,-4.989105559303288e-08,0.9999999999999973,0.0;0.0;0.0;0.0;0.0;0.0;0.0;0.0;0.0,7.621289842063561e-05;0.0;0.0;0.0;7.621289842063561e-05;0.0;0.0;0.0;7.621289842063561e-05,3.999999975690116e-08;0.0;0.0;0.0;3.999999975690116e-08;0.0;0.0;0.0;3.999999975690116e-08
48,80000000,48.08,imu_link,0.002141772786113835,-0.001444723001711564,-0.005760641293680747,-9.185450959440078e-05,-7.769757122622076e-05,9.799728244353906,-4.615570793992144e-10,5.330484785071696e-08,-4.9891055593037685e-08,0.9999999999999973,0.0;0.0;0.0;0.0;0.0;0.0;0.0;0.0;0.0,7.621289842063561e-05;0.0;0.0;0.0;7.621289842063561e-05;0.0;0.0;0.0;7.621289842063561e-05,3.999999975690116e-08;0.0;0.0;0.0;3.999999975690116e-08;0.0;0.0;0.0;3.999999975690116e-08
48,100000000,48.1,imu_link,-0.0065375029208850225,-0.008873393649642056,-0.0027037765098878353,0.0005433149062442726,-0.00012456098793123396,9.799895055044955,-4.6155707959478973e-10,5.330484785040898e-08,-4.989105559304259e-08,0.9999999999999973,0.0;0.0;0.0;0.0;0.0;0.0;0.0;0.0;0.0,7.621289842063561e-05;0.0;0.0;0.0;7.621289842063561e-05;0.0;0.0;0.0;7.621289842063561e-05,3.999999975690116e-08;0.0;0.0;0.0;3.999999975690116e-08;0.0;0.0;0.0;3.999999975690116e-08
48,120000000,48.12,imu_link,0.0014380823784018667,-0.001968089539345078,0.016371730662211006,0.0003460518630490681,1.683696433534881e-05,9.799925955685952,-4.615570794361437e-10,5.330484785054784e-08,-4.989105559304645e-08,0.9999999999999973,0.0;0.0;0.0;0.0;0.0;0.0;0.0;0.0;0.0,7.621289842063561e-05;0.0;0.0;0.0;7.621289842063561e-05;0.0;0.0;0.0;7.621289842063561e-05,3.999999975690116e-08;0.0;0.0;0.0;3.999999975690116e-08;0.0;0.0;0.0;3.999999975690116e-08
48,140000000,48.14,imu_link,-0.000483531924190282,0.0012699096374985189,0.0057226661601334165,6.978172010071987e-05,-0.0002637463674358206,9.79956616305048,-4.6155707953944127e-10,5.33048478506688e-08,-4.9891055593050456e-08,0.9999999999999973,0.0;0.0;0.0;0.0;0.0;0.0;0.0;0.0;0.0,7.621289842063561e-05;0.0;0.0;0.0;7.621289842063561e-05;0.0;0.0;0.0;7.621289842063561e-05,3.999999975690116e-08;0.0;0.0;0.0;3.999999975690116e-08;0.0;0.0;0.0;3.999999975690116e-08
48,160000000,48.16,imu_link,-0.010297048131587614,0.00023188137038963246,0.006774903410621162,3.38216200159381e-06,0.0001628488260881983,9.799928084478722,-4.6155707971164704e-10,5.3304847850914106e-08,-4.9891055593055426e-08,0.9999999999999973,0.0;0.0;0.0;0.0;0.0;0.0;0.0;0.0;0.0,7.621289842063561e-05;0.0;0.0;0.0;7.621289842063561e-05;0.0;0.0;0.0;7.621289842063561e-05,3.999999975690116e-08;0.0;0.0;0.0;3.999999975690116e-08;0.0;0.0;0.0;3.999999975690116e-08
48,180000000,48.18,imu_link,0.0020675966584534546,0.0011253588850747786,-0.008126361284238841,3.182636815535634e-05,-9.992587985460466e-05,9.800168340706904,-4.615570794090705e-10,5.3304847850413456e-08,-4.9891055593057286e-08,0.9999999999999973,0.0;0.0;0.0;0.0;0.0;0.0;0.0;0.0;0.0,7.621289842063561e-05;0.0;0.0;0.0;7.621289842063561e-05;0.0;0.0;0.0;7.621289842063561e-05,3.999999975690116e-08;0.0;0.0;0.0;3.999999975690116e-08;0.0;0.0;0.0;3.999999975690116e-08
48,200000000,48.2,imu_link,0.0028012954616153654,0.0033615516833745388,0.010280384145432296,6.550926674762664e-05,1.1118716834818904e-05,9.799720277316792,-4.61557079711137e-10,5.3304847850767927e-08,-4.9891055593062004e-08,0.9999999999999973,0.0;0.0;0.0;0.0;0.0;0.0;0.0;0.0;0.0,7.621289842063561e-05;0.0;0.0;0.0;7.621289842063561e-05;0.0;0.0;0.0;7.621289842063561e-05,3.999999975690116e-08;0.0;0.0;0.0;3.999999975690116e-08;0.0;0.0;0.0;3.999999975690116e-08
48,220000000,48.22,imu_link,-0.005378130689602858,-0.0017574394568038562,-0.005771355783486872,2.888085314119351e-05,0.000125683600284024,9.799997135617899,-4.6155707940824117e-10,5.330484785072917e-08,-4.9891055593065114e-08,0.9999999999999973,0.0;0.0;0.0;0.0;0.0;0.0;0.0;0.0;0.0,7.621289842063561e-05;0.0;0.0;0.0;7.621289842063561e-05;0.0;0.0;0.0;7.621289842063561e-05,3.999999975690116e-08;0.0;0.0;0.0;3.999999975690116e-08;0.0;0.0;0.0;3.999999975690116e-08
48,240000000,48.24,imu_link,-0.008486107162109372,-0.0002551897110322441,0.0043383373152485255,0.00010111345295199273,0.00023947879524088605,9.800001322320052,-4.6155707948908163e-10,5.33048478503852e-08,-4.989105559306826e-08,0.9999999999999973,0.0;0.0;0.0;0.0;0.0;0.0;0.0;0.0;0.0,7.621289842063561e-05;0.0;0.0;0.0;7.621289842063561e-05;0.0;0.0;0.0;7.621289842063561e-05,3.999999975690116e-08;0.0;0.0;0.0;3.999999975690116e-08;0.0;0.0;0.0;3.999999975690116e-08
48,260000000,48.26,imu_link,0.004394041592934063,0.005327440953700311,0.00025216958871717647,0.00011469595925062183,4.214297227606416e-05,9.799809488976928,-4.6155707965287063e-10,5.330484785075221e-08,-4.989105559307336e-08,0.9999999999999973,0.0;0.0;0.0;0.0;0.0;0.0;0.0;0.0;0.0,7.621289842063561e-05;0.0;0.0;0.0;7.621289842063561e-05;0.0;0.0;0.0;7.621289842063561e-05,3.999999975690116e-08;0.0;0.0;0.0;3.999999975690116e-08;0.0;0.0;0.0;3.999999975690116e-08
48,280000000,48.28,imu_link,-0.007004201351819178,-0.0023585860563855414,0.008093374892403088,0.0005081413592641497,4.7767765881141024e-05,9.799899374788225,-4.6155707948650186e-10,5.3304847850884036e-08,-4.989105559307938e-08,0.9999999999999973,0.0;0.0;0.0;0.0;0.0;0.0;0.0;0.0;0.0,7.621289842063561e-05;0.0;0.0;0.0;7.621289842063561e-05;0.0;0.0;0.0;7.621289842063561e-05,3.999999975690116e-08;0.0;0.0;0.0;3.999999975690116e-08;0.0;0.0;0.0;3.999999975690116e-08
48,300000000,48.3,imu_link,0.013022454012106287,0.0001161562380010487,0.008065546647874925,9.039906100516198e-06,0.00042688080121885676,9.800020008914265,-4.6155707958476436e-10,5.3304847850409936e-08,-4.989105559308553e-08,0.9999999999999973,0.0;0.0;0.0;0.0;0.0;0.0;0.0;0.0;0.0,7.621289842063561e-05;0.0;0.0;0.0;7.621289842063561e-05;0.0;0.0;0.0;7.621289842063561e-05,3.999999975690116e-08;0.0;0.0;0.0;3.999999975690116e-08;0.0;0.0;0.0;3.999999975690116e-08
48,320000000,48.32,imu_link,-0.0033001380630199926,0.017445411482100714,-0.010276933114518787,-0.00016228355971642554,0.0002829820350021882,9.799810463232694,-4.6155707953164457e-10,5.330484785053643e-08,-4.989105559309081e-08,0.9999999999999973,0.0;0.0;0.0;0.0;0.0;0.0;0.0;0.0;0.0,7.621289842063561e-05;0.0;0.0;0.0;7.621289842063561e-05;0.0;0.0;0.0;7.621289842063561e-05,3.999999975690116e-08;0.0;0.0;0.0;3.999999975690116e-08;0.0;0.0;0.0;3.999999975690116e-08
48,340000000,48.34,imu_link,0.009984553961800747,0.0009895346430254344,-0.004739253787630834,8.560853530664355e-05,0.00021400154910793004,9.799753515822967,-4.6155707969151884e-10,5.330484785091372e-08,-4.989105559309485e-08,0.9999999999999973,0.0;0.0;0.0;0.0;0.0;0.0;0.0;0.0;0.0,7.621289842063561e-05;0.0;0.0;0.0;7.621289842063561e-05;0.0;0.0;0.0;7.621289842063561e-05,3.999999975690116e-08;0.0;0.0;0.0;3.999999975690116e-08;0.0;0.0;0.0;3.999999975690116e-08
48,360000000,48.36,imu_link,0.010360500639096189,-0.0019159273434334561,-0.006215788388767982,-3.313739506049288e-05,0.0003062284709912237,9.799742862029863,-4.6155707955653795e-10,5.330484785039925e-08,-4.989105559310038e-08,0.9999999999999973,0.0;0.0;0.0;0.0;0.0;0.0;0.0;0.0;0.0,7.621289842063561e-05;0.0;0.0;0.0;7.621289842063561e-05;0.0;0.0;0.0;7.621289842063561e-05,3.999999975690116e-08;0.0;0.0;0.0;3.999999975690116e-08;0.0;0.0;0.0;3.999999975690116e-08
48,380000000,48.38,imu_link,0.00220609565637617,-0.00878030713607584,-0.006294180333112678,0.0002331828218856443,0.00011953977664989226,9.799901575861949,-4.6155707937954095e-10,5.330484785054043e-08,-4.98910555931071e-08,0.9999999999999973,0.0;0.0;0.0;0.0;0.0;0.0;0.0;0.0;0.0,7.621289842063561e-05;0.0;0.0;0.0;7.621289842063561e-05;0.0;0.0;0.0;7.621289842063561e-05,3.999999975690116e-08;0.0;0.0;0.0;3.999999975690116e-08;0.0;0.0;0.0;3.999999975690116e-08
48,400000000,48.4,imu_link,0.0036426950445395886,-0.007666945288922634,-0.003502018962016033,0.00019035567531334438,-0.0002828179344678587,9.799809561195888,-4.6155707969376443e-10,5.330484785087774e-08,-4.98910555931135e-08,0.9999999999999973,0.0;0.0;0.0;0.0;0.0;0.0;0.0;0.0;0.0,7.621289842063561e-05;0.0;0.0;0.0;7.621289842063561e-05;0.0;0.0;0.0;7.621289842063561e-05,3.999999975690116e-08;0.0;0.0;0.0;3.999999975690116e-08;0.0;0.0;0.0;3.999999975690116e-08
48,420000000,48.42,imu_link,0.0014258506709610669,0.005981977121366339,-0.005656141950876829,0.0001035287488148876,0.00014380229886633145,9.7998213008838,-4.615570795423795e-10,5.330484785036976e-08,-4.9891055593117207e-08,0.9999999999999973,0.0;0.0;0.0;0.0;0.0;0.0;0.0;0.0;0.0,7.621289842063561e-05;0.0;0.0;0.0;7.621289842063561e-05;0.0;0.0;0.0;7.621289842063561e-05,3.999999975690116e-08;0.0;0.0;0.0;3.999999975690116e-08;0.0;0.0;0.0;3.999999975690116e-08
48,440000000,48.44,imu_link,-0.003567294682976117,-0.026395146170381273,0.016028343039822028,-0.00021799249740862392,-0.000309566731093441,9.80013536126404,-4.6155707950834284e-10,5.330484785049006e-08,-4.989105559312387e-08,0.9999999999999973,0.0;0.0;0.0;0.0;0.0;0.0;0.0;0.0;0.0,7.621289842063561e-05;0.0;0.0;0.0;7.621289842063561e-05;0.0;0.0;0.0;7.621289842063561e-05,3.999999975690116e-08;0.0;0.0;0.0;3.999999975690116e-08;0.0;0.0;0.0;3.999999975690116e-08
48,460000000,48.46,imu_link,0.0013092934822223708,0.00025769406760119785,-0.015760448393233692,0.00025891063374150784,-0.00011351641985763706,9.800226215687754,-4.6155707953393664e-10,5.330484785085681e-08,-4.989105559313291e-08,0.9999999999999973,0.0;0.0;0.0;0.0;0.0;0.0;0.0;0.0;0.0,7.621289842063561e-05;0.0;0.0;0.0;7.621289842063561e-05;0.0;0.0;0.0;7.621289842063561e-05,3.999999975690116e-08;0.0;0.0;0.0;3.999999975690116e-08;0.0;0.0;0.0;3.999999975690116e-08
48,480000000,48.48,imu_link,-0.004969883557534317,0.009307617280976488,-0.011716990497690066,9.448646587088854e-05,-0.0002622147247434112,9.799712959247083,-4.6155707939100733e-10,5.330484785034159e-08,-4.9891055593139e-08,0.9999999999999973,0.0;0.0;0.0;0.0;0.0;0.0;0.0;0.0;0.0,7.621289842063561e-05;0.0;0.0;0.0;7.621289842063561e-05;0.0;0.0;0.0;7.621289842063561e-05,3.999999975690116e-08;0.0;0.0;0.0;3.999999975690116e-08;0.0;0.0;0.0;3.999999975690116e-08
48,500000000,48.5,imu_link,0.0004751766099026388,0.005296078257011612,0.007557798372517068,-2.544548266591498e-05,-0.00023849312650499896,9.799935119317398,-4.6155707957663793e-10,5.330484785051801e-08,-4.989105559314471e-08,0.9999999999999973,0.0;0.0;0.0;0.0;0.0;0.0;0.0;0.0;0.0,7.621289842063561e-05;0.0;0.0;0.0;7.621289842063561e-05;0.0;0.0;0.0;7.621289842063561e-05,3.999999975690116e-08;0.0;0.0;0.0;3.999999975690116e-08;0.0;0.0;0.0;3.999999975690116e-08
48,520000000,48.52,imu_link,0.0034726850900988738,-0.010678144170111597,-0.0025280478525749137,0.0001748335384073498,0.00031515519765776235,9.799958810480842,-4.615570795270768e-10,5.3304847850643426e-08,-4.989105559315019e-08,0.9999999999999973,0.0;0.0;0.0;0.0;0.0;0.0;0.0;0.0;0.0,7.621289842063561e-05;0.0;0.0;0.0;7.621289842063561e-05;0.0;0.0;0.0;7.621289842063561e-05,3.999999975690116e-08;0.0;0.0;0.0;3.999999975690116e-08;0.0;0.0;0.0;3.999999975690116e-08
48,540000000,48.54,imu_link,-0.010753564173158753,-0.013942931096225826,0.007085129027489433,0.000187033881122387,4.940505660756243e-05,9.7998436225775,-4.615570796006927e-10,5.3304847850376465e-08,-4.989105559315619e-08,0.9999999999999973,0.0;0.0;0.0;0.0;0.0;0.0;0.0;0.0;0.0,7.621289842063561e-05;0.0;0.0;0.0;7.621289842063561e-05;0.0;0.0;0.0;7.621289842063561e-05,3.999999975690116e-08;0.0;0.0;0.0;3.999999975690116e-08;0.0;0.0;0.0;3.999999975690116e-08
48,560000000,48.56,imu_link,0.011267735832882783,-0.007957828414213976,-0.001968704182660609,-0.00012055003312185614,0.0003116079061197527,9.80007749205941,-4.615570794357204e-10,5.330484785051751e-08,-4.989105559316254e-08,0.9999999999999973,0.0;0.0;0.0;0.0;0.0;0.0;0.0;0.0;0.0,7.621289842063561e-05;0.0;0.0;0.0;7.621289842063561e-05;0.0;0.0;0.0;7.621289842063561e-05,3.999999975690116e-08;0.0;0.0;0.0;3.999999975690116e-08;0.0;0.0;0.0;3.999999975690116e-08
48,580000000,48.58,imu_link,0.026944916594505087,-0.015671319676400418,0.0008105944343538904,0.0002406594961649118,9.874126053828381e-05,9.79968065796473,-4.6155707952586206e-10,5.330484785063243e-08,-4.989105559316813e-08,0.9999999999999973,0.0;0.0;0.0;0.0;0.0;0.0;0.0;0.0;0.0,7.621289842063561e-05;0.0;0.0;0.0;7.621289842063561e-05;0.0;0.0;0.0;7.621289842063561e-05,3.999999975690116e-08;0.0;0.0;0.0;3.999999975690116e-08;0.0;0.0;0.0;3.999999975690116e-08
48,600000000,48.6,imu_link,0.007060787311000764,0.0017723976041559408,-0.00903289929590449,0.00037261827985588235,0.0005867808886192375,9.799884055505025,-4.61557079685298e-10,5.330484785087954e-08,-4.9891055593173e-08,0.9999999999999973,0.0;0.0;0.0;0.0;0.0;0.0;0.0;0.0;0.0,7.621289842063561e-05;0.0;0.0;0.0;7.621289842063561e-05;0.0;0.0;0.0;7.621289842063561e-05,3.999999975690116e-08;0.0;0.0;0.0;3.999999975690116e-08;0.0;0.0;0.0;3.999999975690116e-08
48,620000000,48.62,imu_link,0.0049457572701000554,-0.004214441111821798,0.008752787693553024,0.0002854374193984364,-0.00018517149994486847,9.799723026066278,-4.6155707938686786e-10,5.330484785037803e-08,-4.98910555931777e-08,0.9999999999999973,0.0;0.0;0.0;0.0;0.0;0.0;0.0;0.0;0.0,7.621289842063561e-05;0.0;0.0;0.0;7.621289842063561e-05;0.0;0.0;0.0;7.621289842063561e-05,3.999999975690116e-08;0.0;0.0;0.0;3.999999975690116e-08;0.0;0.0;0.0;3.999999975690116e-08
48,640000000,48.64,imu_link,-0.010494564619329806,0.0033767727114900016,-0.015924278513082767,-1.961109112355778e-06,4.5628436129244567e-05,9.800007357829394,-4.6155707944134644e-10,5.3304847850671166e-08,-4.9891055593184e-08,0.9999999999999973,0.0;0.0;0.0;0.0;0.0;0.0;0.0;0.0;0.0,7.621289842063561e-05;0.0;0.0;0.0;7.621289842063561e-05;0.0;0.0;0.0;7.621289842063561e-05,3.999999975690116e-08;0.0;0.0;0.0;3.999999975690116e-08;0.0;0.0;0.0;3.999999975690116e-08
48,660000000,48.66,imu_link,0.0005607701969273015,0.0011838141440386077,-0.014761489601249815,6.0267910580432946e-05,0.00048196577211136773,9.799943493880026,-4.6155707941257694e-10,5.330484785078922e-08,-4.9891055593191064e-08,0.9999999999999973,0.0;0.0;0.0;0.0;0.0;0.0;0.0;0.0;0.0,7.621289842063561e-05;0.0;0.0;0.0;7.621289842063561e-05;0.0;0.0;0.0;7.621289842063561e-05,3.999999975690116e-08;0.0;0.0;0.0;3.999999975690116e-08;0.0;0.0;0.0;3.999999975690116e-08
48,680000000,48.68,imu_link,-0.01929831839827154,0.0023072652713760954,0.0002687162000768,4.835794015352007e-06,0.0001024702393213886,9.799972346536073,-4.61557079630491e-10,5.3304847850501263e-08,-4.9891055593196285e-08,0.9999999999999973,0.0;0.0;0.0;0.0;0.0;0.0;0.0;0.0;0.0,7.621289842063561e-05;0.0;0.0;0.0;7.621289842063561e-05;0.0;0.0;0.0;7.621289842063561e-05,3.999999975690116e-08;0.0;0.0;0.0;3.999999975690116e-08;0.0;0.0;0.0;3.999999975690116e-08
48,700000000,48.7,imu_link,0.006514328188066787,-0.0016184564912570727,0.014051494114773919,-0.00020194048300437744,5.200600896666158e-05,9.800010773120457,-4.615570796072831e-10,5.330484785060917e-08,-4.989105559320308e-08,0.9999999999999973,0.0;0.0;0.0;0.0;0.0;0.0;0.0;0.0;0.0,7.621289842063561e-05;0.0;0.0;0.0;7.621289842063561e-05;0.0;0.0;0.0;7.621289842063561e-05,3.999999975690116e-08;0.0;0.0;0.0;3.999999975690116e-08;0.0;0.0;0.0;3.999999975690116e-08
48,720000000,48.72,imu_link,-0.01752560546053775,0.016049831473914436,-0.000987022366930697,0.0002621340654357572,6.81215568278024e-05,9.800076360131037,-4.6155707951409847e-10,5.3304847850800696e-08,-4.989105559320799e-08,0.9999999999999973,0.0;0.0;0.0;0.0;0.0;0.0;0.0;0.0;0.0,7.621289842063561e-05;0.0;0.0;0.0;7.621289842063561e-05;0.0;0.0;0.0;7.621289842063561e-05,3.999999975690116e-08;0.0;0.0;0.0;3.999999975690116e-08;0.0;0.0;0.0;3.999999975690116e-08
48,740000000,48.74,imu_link,0.007291473318860964,-0.022852767605071964,0.004401439773800299,0.00031323715453223093,-0.00011282516844562766,9.79969421147271,-4.6155707951121885e-10,5.3304847850275906e-08,-4.9891055593214595e-08,0.9999999999999973,0.0;0.0;0.0;0.0;0.0;0.0;0.0;0.0;0.0,7.621289842063561e-05;0.0;0.0;0.0;7.621289842063561e-05;0.0;0.0;0.0;7.621289842063561e-05,3.999999975690116e-08;0.0;0.0;0.0;3.999999975690116e-08;0.0;0.0;0.0;3.999999975690116e-08
48,760000000,48.76,imu_link,-0.01494082495177946,-0.005315000641599997,-0.0019145773883973765,-1.2070014582611904e-05,-3.698999278035309e-05,9.799628299903553,-4.6155707953902975e-10,5.330484785064205e-08,-4.989105559322165e-08,0.9999999999999973,0.0;0.0;0.0;0.0;0.0;0.0;0.0;0.0;0.0,7.621289842063561e-05;0.0;0.0;0.0;7.621289842063561e-05;0.0;0.0;0.0;7.621289842063561e-05,3.999999975690116e-08;0.0;0.0;0.0;3.999999975690116e-08;0.0;0.0;0.0;3.999999975690116e-08
48,780000000,48.78,imu_link,-0.0015966335413969987,0.004263567161768103,0.0031916640767102665,0.000135208279877634,-0.00010350379693329277,9.799971722486333,-4.6155707946844193e-10,5.33048478506453e-08,-4.989105559322885e-08,0.9999999999999973,0.0;0.0;0.0;0.0;0.0;0.0;0.0;0.0;0.0,7.621289842063561e-05;0.0;0.0;0.0;7.621289842063561e-05;0.0;0.0;0.0;7.621289842063561e-05,3.999999975690116e-08;0.0;0.0;0.0;3.999999975690116e-08;0.0;0.0;0.0;3.999999975690116e-08
48,800000000,48.8,imu_link,-0.008675698481178013,0.012450706320840993,0.022589077329796495,5.273679768318312e-05,0.00028514344876454686,9.799555687755472,-4.6155707956176217e-10,5.330484785030241e-08,-4.9891055593235335e-08,0.9999999999999973,0.0;0.0;0.0;0.0;0.0;0.0;0.0;0.0;0.0,7.621289842063561e-05;0.0;0.0;0.0;7.621289842063561e-05;0.0;0.0;0.0;7.621289842063561e-05,3.999999975690116e-08;0.0;0.0;0.0;3.999999975690116e-08;0.0;0.0;0.0;3.999999975690116e-08
48,820000000,48.82,imu_link,0.013610030426125458,0.002452302332579775,0.012556559244933839,9.670723531224542e-05,0.0001724850661151813,9.799670857611641,-4.6155707951814685e-10,5.330484785031329e-08,-4.98910555932413e-08,0.9999999999999973,0.0;0.0;0.0;0.0;0.0;0.0;0.0;0.0;0.0,7.621289842063561e-05;0.0;0.0;0.0;7.621289842063561e-05;0.0;0.0;0.0;7.621289842063561e-05,3.999999975690116e-08;0.0;0.0;0.0;3.999999975690116e-08;0.0;0.0;0.0;3.999999975690116e-08
48,840000000,48.84,imu_link,0.004240349158049978,0.009910066772046157,-0.0017191374511271432,9.046518911011632e-05,7.114398774925814e-06,9.799739894558531,-4.6155707943020917e-10,5.330484785051294e-08,-4.989105559324804e-08,0.9999999999999973,0.0;0.0;0.0;0.0;0.0;0.0;0.0;0.0;0.0,7.621289842063561e-05;0.0;0.0;0.0;7.621289842063561e-05;0.0;0.0;0.0;7.621289842063561e-05,3.999999975690116e-08;0.0;0.0;0.0;3.999999975690116e-08;0.0;0.0;0.0;3.999999975690116e-08
48,860000000,48.86,imu_link,-0.006743360754437792,-0.016073990780630737,0.01239480848691082,-6.637646759820072e-05,-0.0001493027048348285,9.799853597023532,-4.615570794791365e-10,5.3304847850702334e-08,-4.989105559325284e-08,0.9999999999999973,0.0;0.0;0.0;0.0;0.0;0.0;0.0;0.0;0.0,7.621289842063561e-05;0.0;0.0;0.0;7.621289842063561e-05;0.0;0.0;0.0;7.621289842063561e-05,3.999999975690116e-08;0.0;0.0;0.0;3.999999975690116e-08;0.0;0.0;0.0;3.999999975690116e-08
48,880000000,48.88,imu_link,0.0064585348127516795,-5.126084713026375e-05,-0.012174017581013157,0.000325914031787529,-0.000215458645941821,9.79944910299243,-4.6155707952840885e-10,5.3304847850538195e-08,-4.9891055593256775e-08,0.9999999999999973,0.0;0.0;0.0;0.0;0.0;0.0;0.0;0.0;0.0,7.621289842063561e-05;0.0;0.0;0.0;7.621289842063561e-05;0.0;0.0;0.0;7.621289842063561e-05,3.999999975690116e-08;0.0;0.0;0.0;3.999999975690116e-08;0.0;0.0;0.0;3.999999975690116e-08
48,900000000,48.9,imu_link,0.00635443834833409,-0.00643025888150013,-0.0008885285247325435,0.0002843895825434147,0.00023351723873801724,9.799854135894785,-4.6155707961460345e-10,5.3304847850538996e-08,-4.989105559326147e-08,0.9999999999999973,0.0;0.0;0.0;0.0;0.0;0.0;0.0;0.0;0.0,7.621289842063561e-05;0.0;0.0;0.0;7.621289842063561e-05;0.0;0.0;0.0;7.621289842063561e-05,3.999999975690116e-08;0.0;0.0;0.0;3.999999975690116e-08;0.0;0.0;0.0;3.999999975690116e-08
48,920000000,48.92,imu_link,0.0007352423534249413,-0.002065620564922517,0.00021712028639331201,-3.400898109748525e-05,0.0004774353511794499,9.800124526970867,-4.615570795323723e-10,5.330484785084737e-08,-4.98910555932676e-08,0.9999999999999973,0.0;0.0;0.0;0.0;0.0;0.0;0.0;0.0;0.0,7.621289842063561e-05;0.0;0.0;0.0;7.621289842063561e-05;0.0;0.0;0.0;7.621289842063561e-05,3.999999975690116e-08;0.0;0.0;0.0;3.999999975690116e-08;0.0;0.0;0.0;3.999999975690116e-08
48,940000000,48.94,imu_link,0.021716593859049855,-0.0057047771357882785,-0.00412941232991122,3.241758332445418e-05,7.459464070629108e-05,9.799864338678335,-4.615570794865526e-10,5.330484785039586e-08,-4.989105559327286e-08,0.9999999999999973,0.0;0.0;0.0;0.0;0.0;0.0;0.0;0.0;0.0,7.621289842063561e-05;0.0;0.0;0.0;7.621289842063561e-05;0.0;0.0;0.0;7.621289842063561e-05,3.999999975690116e-08;0.0;0.0;0.0;3.999999975690116e-08;0.0;0.0;0.0;3.999999975690116e-08
48,960000000,48.96,imu_link,-0.01813143731422269,-0.013806186476513719,0.004124842909891466,0.0002667829579349043,8.206645916778029e-05,9.800126451550735,-4.615570795596949e-10,5.3304847850570945e-08,-4.9891055593280254e-08,0.9999999999999973,0.0;0.0;0.0;0.0;0.0;0.0;0.0;0.0;0.0,7.621289842063561e-05;0.0;0.0;0.0;7.621289842063561e-05;0.0;0.0;0.0;7.621289842063561e-05,3.999999975690116e-08;0.0;0.0;0.0;3.999999975690116e-08;0.0;0.0;0.0;3.999999975690116e-08
48,980000000,48.98,imu_link,-0.010884933793644797,0.0046097495999367,0.012611761530108392,7.526632628685883e-05,-0.00010435428461179387,9.800220945359762,-4.6155707960510256e-10,5.3304847850752025e-08,-4.989105559328645e-08,0.9999999999999973,0.0;0.0;0.0;0.0;0.0;0.0;0.0;0.0;0.0,7.621289842063561e-05;0.0;0.0;0.0;7.621289842063561e-05;0.0;0.0;0.0;7.621289842063561e-05,3.999999975690116e-08;0.0;0.0;0.0;3.999999975690116e-08;0.0;0.0;0.0;3.999999975690116e-08
49,0,49.0,imu_link,-0.006198249114934194,0.022485009122429008,-0.007830069426053105,0.00016163597699748422,0.00028472152686273984,9.799711787131141,-4.615570794126677e-10,5.330484785088767e-08,-4.989105559329349e-08,0.9999999999999973,0.0;0.0;0.0;0.0;0.0;0.0;0.0;0.0;0.0,7.621289842063561e-05;0.0;0.0;0.0;7.621289842063561e-05;0.0;0.0;0.0;7.621289842063561e-05,3.999999975690116e-08;0.0;0.0;0.0;3.999999975690116e-08;0.0;0.0;0.0;3.999999975690116e-08
49,20000000,49.02,imu_link,0.005744839815080269,0.013439127985882064,0.004061308046711282,0.0003677753339410583,5.8736328075042374e-05,9.800045369437164,-4.615570794740525e-10,5.3304847850609055e-08,-4.989105559330075e-08,0.9999999999999973,0.0;0.0;0.0;0.0;0.0;0.0;0.0;0.0;0.0,7.621289842063561e-05;0.0;0.0;0.0;7.621289842063561e-05;0.0;0.0;0.0;7.621289842063561e-05,3.999999975690116e-08;0.0;0.0;0.0;3.999999975690116e-08;0.0;0.0;0.0;3.999999975690116e-08
49,40000000,49.04,imu_link,0.0065168671132831675,0.023900740629040823,-0.02154524018511951,-0.00016672944175966429,0.00018222609927640962,9.799745615162683,-4.6155707943601826e-10,5.330484785073634e-08,-4.989105559330651e-08,0.9999999999999973,0.0;0.0;0.0;0.0;0.0;0.0;0.0;0.0;0.0,7.621289842063561e-05;0.0;0.0;0.0;7.621289842063561e-05;0.0;0.0;0.0;7.621289842063561e-05,3.999999975690116e-08;0.0;0.0;0.0;3.999999975690116e-08;0.0;0.0;0.0;3.999999975690116e-08
49,60000000,49.06,imu_link,0.008735412378440454,-0.00814065467036307,0.001402440745716819,0.00011306549032865764,-2.2814194114792073e-07,9.800041348921654,-4.6155707954054116e-10,5.33048478502767e-08,-4.989105559331091e-08,0.9999999999999973,0.0;0.0;0.0;0.0;0.0;0.0;0.0;0.0;0.0,7.621289842063561e-05;0.0;0.0;0.0;7.621289842063561e-05;0.0;0.0;0.0;7.621289842063561e-05,3.999999975690116e-08;0.0;0.0;0.0;3.999999975690116e-08;0.0;0.0;0.0;3.999999975690116e-08
49,80000000,49.08,imu_link,-0.016853394302041802,-0.011569079816809496,0.0028754107019303113,0.00037963253492566846,0.0001902396302286949,9.799808008964751,-4.6155707948610926e-10,5.330484785041245e-08,-4.98910555933157e-08,0.9999999999999973,0.0;0.0;0.0;0.0;0.0;0.0;0.0;0.0;0.0,7.621289842063561e-05;0.0;0.0;0.0;7.621289842063561e-05;0.0;0.0;0.0;7.621289842063561e-05,3.999999975690116e-08;0.0;0.0;0.0;3.999999975690116e-08;0.0;0.0;0.0;3.999999975690116e-08
49,100000000,49.1,imu_link,0.004342749943611192,-0.0005602705877784138,-9.748588666297462e-05,-2.5762018132030682e-05,-6.626953278020041e-05,9.79989805275143,-4.61557079564831e-10,5.3304847850614217e-08,-4.989105559332174e-08,0.9999999999999973,0.0;0.0;0.0;0.0;0.0;0.0;0.0;0.0;0.0,7.621289842063561e-05;0.0;0.0;0.0;7.621289842063561e-05;0.0;0.0;0.0;7.621289842063561e-05,3.999999975690116e-08;0.0;0.0;0.0;3.999999975690116e-08;0.0;0.0;0.0;3.999999975690116e-08
49,120000000,49.12,imu_link,0.003431721446383586,0.006418317587913394,0.00032165619073465986,0.0001428625379363488,4.8458637248918655e-05,9.799818923827324,-4.6155707952691315e-10,5.330484785027772e-08,-4.9891055593328065e-08,0.9999999999999973,0.0;0.0;0.0;0.0;0.0;0.0;0.0;0.0;0.0,7.621289842063561e-05;0.0;0.0;0.0;7.621289842063561e-05;0.0;0.0;0.0;7.621289842063561e-05,3.999999975690116e-08;0.0;0.0;0.0;3.999999975690116e-08;0.0;0.0;0.0;3.999999975690116e-08
49,140000000,49.14,imu_link,0.018458925554953497,-0.0037869052104994878,-0.012478275938469693,0.0002077795267076502,-0.00015466244987341558,9.799712538446265,-4.6155707948814697e-10,5.3304847850403444e-08,-4.989105559333396e-08,0.9999999999999973,0.0;0.0;0.0;0.0;0.0;0.0;0.0;0.0;0.0,7.621289842063561e-05;0.0;0.0;0.0;7.621289842063561e-05;0.0;0.0;0.0;7.621289842063561e-05,3.999999975690116e-08;0.0;0.0;0.0;3.999999975690116e-08;0.0;0.0;0.0;3.999999975690116e-08
49,160000000,49.16,imu_link,0.0005254994707161577,-0.0017841778763938896,0.002618763962470625,0.00026580462713948977,1.2990281848852467e-05,9.799817898982386,-4.615570795642046e-10,5.33048478505846e-08,-4.989105559334116e-08,0.9999999999999973,0.0;0.0;0.0;0.0;0.0;0.0;0.0;0.0;0.0,7.621289842063561e-05;0.0;0.0;0.0;7.621289842063561e-05;0.0;0.0;0.0;7.621289842063561e-05,3.999999975690116e-08;0.0;0.0;0.0;3.999999975690116e-08;0.0;0.0;0.0;3.999999975690116e-08
49,180000000,49.18,imu_link,0.011912533790801958,0.0007918910485826459,-0.008685742556145725,0.00028008667666098503,1.702119562377373e-05,9.800055754412037,-4.615570795007109e-10,5.3304847850890144e-08,-4.989105559334735e-08,0.9999999999999973,0.0;0.0;0.0;0.0;0.0;0.0;0.0;0.0;0.0,7.621289842063561e-05;0.0;0.0;0.0;7.621289842063561e-05;0.0;0.0;0.0;7.621289842063561e-05,3.999999975690116e-08;0.0;0.0;0.0;3.999999975690116e-08;0.0;0.0;0.0;3.999999975690116e-08
49,200000000,49.2,imu_link,0.0023431583622209326,-0.015189418919988902,0.0051289648015392705,0.00016967658740981372,0.0003325532770878039,9.799811685825087,-4.615570796013614e-10,5.3304847850540935e-08,-4.989105559335143e-08,0.9999999999999973,0.0;0.0;0.0;0.0;0.0;0.0;0.0;0.0;0.0,7.621289842063561e-05;0.0;0.0;0.0;7.621289842063561e-05;0.0;0.0;0.0;7.621289842063561e-05,3.999999975690116e-08;0.0;0.0;0.0;3.999999975690116e-08;0.0;0.0;0.0;3.999999975690116e-08
49,220000000,49.22,imu_link,-0.0007775990180422417,0.0035919302690938957,0.004327914247653749,0.0002585581667074577,0.00025704306808913474,9.799887985641856,-4.615570794160228e-10,5.330484785055899e-08,-4.989105559335675e-08,0.9999999999999973,0.0;0.0;0.0;0.0;0.0;0.0;0.0;0.0;0.0,7.621289842063561e-05;0.0;0.0;0.0;7.621289842063561e-05;0.0;0.0;0.0;7.621289842063561e-05,3.999999975690116e-08;0.0;0.0;0.0;3.999999975690116e-08;0.0;0.0;0.0;3.999999975690116e-08
49,240000000,49.24,imu_link,0.001750705702570317,0.007816833566292982,0.0005975946053205213,0.0006341838191362873,-0.000232879226818603,9.799876369940618,-4.6155707949079524e-10,5.33048478508597e-08,-4.989105559336091e-08,0.9999999999999973,0.0;0.0;0.0;0.0;0.0;0.0;0.0;0.0;0.0,7.621289842063561e-05;0.0;0.0;0.0;7.621289842063561e-05;0.0;0.0;0.0;7.621289842063561e-05,3.999999975690116e-08;0.0;0.0;0.0;3.999999975690116e-08;0.0;0.0;0.0;3.999999975690116e-08
49,260000000,49.26,imu_link,0.0027527304188297644,-0.0001143412059306906,-0.0011118970687452546,-8.627268530563853e-05,-8.17220845421315e-05,9.800242976251264,-4.6155707948232414e-10,5.330484785034113e-08,-4.989105559336405e-08,0.9999999999999973,0.0;0.0;0.0;0.0;0.0;0.0;0.0;0.0;0.0,7.621289842063561e-05;0.0;0.0;0.0;7.621289842063561e-05;0.0;0.0;0.0;7.621289842063561e-05,3.999999975690116e-08;0.0;0.0;0.0;3.999999975690116e-08;0.0;0.0;0.0;3.999999975690116e-08
49,280000000,49.28,imu_link,0.0032353045551599827,-0.0030935348614336833,-0.007486922539301536,0.00020934657396315555,-8.867056348859489e-05,9.79942685612403,-4.615570796760588e-10,5.330484785070413e-08,-4.989105559337038e-08,0.9999999999999973,0.0;0.0;0.0;0.0;0.0;0.0;0.0;0.0;0.0,7.621289842063561e-05;0.0;0.0;0.0;7.621289842063561e-05;0.0;0.0;0.0;7.621289842063561e-05,3.999999975690116e-08;0.0;0.0;0.0;3.999999975690116e-08;0.0;0.0;0.0;3.999999975690116e-08
49,300000000,49.3,imu_link,-0.0023066548363099406,0.0030157932007345446,0.010025801645979614,0.0003682904484427498,7.816511305782621e-05,9.799750984942023,-4.6155707939995225e-10,5.3304847850778415e-08,-4.98910555933747e-08,0.9999999999999973,0.0;0.0;0.0;0.0;0.0;0.0;0.0;0.0;0.0,7.621289842063561e-05;0.0;0.0;0.0;7.621289842063561e-05;0.0;0.0;0.0;7.621289842063561e-05,3.999999975690116e-08;0.0;0.0;0.0;3.999999975690116e-08;0.0;0.0;0.0;3.999999975690116e-08
49,320000000,49.32,imu_link,0.0022089075752447992,-0.008191548965715502,-0.0033594949916661973,-4.393029433221044e-05,6.15383251425427e-05,9.800047149281097,-4.615570796067474e-10,5.330484785048249e-08,-4.9891055593377676e-08,0.9999999999999973,0.0;0.0;0.0;0.0;0.0;0.0;0.0;0.0;0.0,7.621289842063561e-05;0.0;0.0;0.0;7.621289842063561e-05;0.0;0.0;0.0;7.621289842063561e-05,3.999999975690116e-08;0.0;0.0;0.0;3.999999975690116e-08;0.0;0.0;0.0;3.999999975690116e-08
49,340000000,49.34,imu_link,0.006751396757560773,-0.014287967613003556,0.0034925410058768277,0.00016624638406537796,0.00017528232441855595,9.7998814591135,-4.6155707956129724e-10,5.33048478504779e-08,-4.9891055593380045e-08,0.9999999999999973,0.0;0.0;0.0;0.0;0.0;0.0;0.0;0.0;0.0,7.621289842063561e-05;0.0;0.0;0.0;7.621289842063561e-05;0.0;0.0;0.0;7.621289842063561e-05,3.999999975690116e-08;0.0;0.0;0.0;3.999999975690116e-08;0.0;0.0;0.0;3.999999975690116e-08
49,360000000,49.36,imu_link,0.010028302858943051,-0.01740494755352669,0.0005466185431971447,-4.6426473640154975e-05,-0.0002121897103716075,9.799906717103573,-4.615570794887588e-10,5.330484785079828e-08,-4.989105559338427e-08,0.9999999999999973,0.0;0.0;0.0;0.0;0.0;0.0;0.0;0.0;0.0,7.621289842063561e-05;0.0;0.0;0.0;7.621289842063561e-05;0.0;0.0;0.0;7.621289842063561e-05,3.999999975690116e-08;0.0;0.0;0.0;3.999999975690116e-08;0.0;0.0;0.0;3.999999975690116e-08
49,380000000,49.38,imu_link,0.015000164904556128,0.006526719572754697,-0.000714414732385922,-6.0983095770342715e-05,0.00029517877121898846,9.799788477397351,-4.6155707958684135e-10,5.3304847850329276e-08,-4.9891055593387165e-08,0.9999999999999973,0.0;0.0;0.0;0.0;0.0;0.0;0.0;0.0;0.0,7.621289842063561e-05;0.0;0.0;0.0;7.621289842063561e-05;0.0;0.0;0.0;7.621289842063561e-05,3.999999975690116e-08;0.0;0.0;0.0;3.999999975690116e-08;0.0;0.0;0.0;3.999999975690116e-08
49,400000000,49.4,imu_link,-0.0010587631484896883,-0.008127810588680714,0.019850898448612077,-8.002915716834304e-05,0.0001422769585010874,9.799518541503259,-4.61557079546854e-10,5.330484785046038e-08,-4.989105559338967e-08,0.9999999999999973,0.0;0.0;0.0;0.0;0.0;0.0;0.0;0.0;0.0,7.621289842063561e-05;0.0;0.0;0.0;7.621289842063561e-05;0.0;0.0;0.0;7.621289842063561e-05,3.999999975690116e-08;0.0;0.0;0.0;3.999999975690116e-08;0.0;0.0;0.0;3.999999975690116e-08
49,420000000,49.42,imu_link,0.0029792872737999646,-0.0034169550281073838,-0.0038252194721739557,0.00013065714507529383,0.00015480651681016363,9.800062725946127,-4.615570796005152e-10,5.330484785064604e-08,-4.989105559339255e-08,0.9999999999999973,0.0;0.0;0.0;0.0;0.0;0.0;0.0;0.0;0.0,7.621289842063561e-05;0.0;0.0;0.0;7.621289842063561e-05;0.0;0.0;0.0;7.621289842063561e-05,3.999999975690116e-08;0.0;0.0;0.0;3.999999975690116e-08;0.0;0.0;0.0;3.999999975690116e-08
49,440000000,49.44,imu_link,0.004440936462619829,0.0026356872232335196,-0.023482580573320023,0.00011629169578169525,0.00027614355142819945,9.799859547466657,-4.615570795697478e-10,5.330484785030339e-08,-4.989105559339561e-08,0.9999999999999973,0.0;0.0;0.0;0.0;0.0;0.0;0.0;0.0;0.0,7.621289842063561e-05;0.0;0.0;0.0;7.621289842063561e-05;0.0;0.0;0.0;7.621289842063561e-05,3.999999975690116e-08;0.0;0.0;0.0;3.999999975690116e-08;0.0;0.0;0.0;3.999999975690116e-08
49,460000000,49.46,imu_link,0.001988867131550657,0.004856324707957921,0.00904493433080704,0.0002506166676506586,-0.00013968838975417534,9.79964125326421,-4.615570794005089e-10,5.3304847850443116e-08,-4.989105559339912e-08,0.9999999999999973,0.0;0.0;0.0;0.0;0.0;0.0;0.0;0.0;0.0,7.621289842063561e-05;0.0;0.0;0.0;7.621289842063561e-05;0.0;0.0;0.0;7.621289842063561e-05,3.999999975690116e-08;0.0;0.0;0.0;3.999999975690116e-08;0.0;0.0;0.0;3.999999975690116e-08
49,480000000,49.48,imu_link,0.016910520052276376,0.019770130295473313,-0.006535263272033288,1.6715763879298254e-05,0.00028943158894467746,9.799923868626582,-4.6155707960320997e-10,5.330484785061812e-08,-4.98910555934034e-08,0.9999999999999973,0.0;0.0;0.0;0.0;0.0;0.0;0.0;0.0;0.0,7.621289842063561e-05;0.0;0.0;0.0;7.621289842063561e-05;0.0;0.0;0.0;7.621289842063561e-05,3.999999975690116e-08;0.0;0.0;0.0;3.999999975690116e-08;0.0;0.0;0.0;3.999999975690116e-08
49,500000000,49.5,imu_link,0.010871493762715465,-0.013232562915099515,-0.013119794663061388,0.00010378430770634904,0.0001912247298129909,9.799977109781837,-4.615570795634259e-10,5.330484785028347e-08,-4.9891055593407825e-08,0.9999999999999973,0.0;0.0;0.0;0.0;0.0;0.0;0.0;0.0;0.0,7.621289842063561e-05;0.0;0.0;0.0;7.621289842063561e-05;0.0;0.0;0.0;7.621289842063561e-05,3.999999975690116e-08;0.0;0.0;0.0;3.999999975690116e-08;0.0;0.0;0.0;3.999999975690116e-08
49,520000000,49.52,imu_link,-0.008581831913349859,0.01767828572738367,0.0017503931100005684,1.990766273890512e-05,0.0003914012234507917,9.799742825841294,-4.615570793797652e-10,5.330484785040584e-08,-4.989105559341217e-08,0.9999999999999973,0.0;0.0;0.0;0.0;0.0;0.0;0.0;0.0;0.0,7.621289842063561e-05;0.0;0.0;0.0;7.621289842063561e-05;0.0;0.0;0.0;7.621289842063561e-05,3.999999975690116e-08;0.0;0.0;0.0;3.999999975690116e-08;0.0;0.0;0.0;3.999999975690116e-08
49,540000000,49.54,imu_link,-0.008985679753398255,-0.00646451346673704,0.006304320048180619,-6.122543696764296e-05,0.00017572964433025398,9.79948387911062,-4.615570795838986e-10,5.330484785057951e-08,-4.989105559341605e-08,0.9999999999999973,0.0;0.0;0.0;0.0;0.0;0.0;0.0;0.0;0.0,7.621289842063561e-05;0.0;0.0;0.0;7.621289842063561e-05;0.0;0.0;0.0;7.621289842063561e-05,3.999999975690116e-08;0.0;0.0;0.0;3.999999975690116e-08;0.0;0.0;0.0;3.999999975690116e-08
49,560000000,49.56,imu_link,0.009049287700914713,-0.007061456972576584,0.0030438693989471494,0.0001261818650039305,0.000140751215397304,9.799809510351377,-4.615570794148075e-10,5.330484785071059e-08,-4.989105559341935e-08,0.9999999999999973,0.0;0.0;0.0;0.0;0.0;0.0;0.0;0.0;0.0,7.621289842063561e-05;0.0;0.0;0.0;7.621289842063561e-05;0.0;0.0;0.0;7.621289842063561e-05,3.999999975690116e-08;0.0;0.0;0.0;3.999999975690116e-08;0.0;0.0;0.0;3.999999975690116e-08
49,580000000,49.58,imu_link,-0.008075352300577113,-0.0066383658088240306,-0.011613884427919713,2.1536175522231506e-05,8.544719512055464e-05,9.79977697936882,-4.6155707961029983e-10,5.330484785042309e-08,-4.989105559342518e-08,0.9999999999999973,0.0;0.0;0.0;0.0;0.0;0.0;0.0;0.0;0.0,7.621289842063561e-05;0.0;0.0;0.0;7.621289842063561e-05;0.0;0.0;0.0;7.621289842063561e-05,3.999999975690116e-08;0.0;0.0;0.0;3.999999975690116e-08;0.0;0.0;0.0;3.999999975690116e-08
49,600000000,49.6,imu_link,0.007365363147480201,0.02425579323773372,-0.0010042724087960158,0.0004272774790674462,-0.00019025854280412744,9.799853300159453,-4.6155707944632255e-10,5.330484785055356e-08,-4.989105559343023e-08,0.9999999999999973,0.0;0.0;0.0;0.0;0.0;0.0;0.0;0.0;0.0,7.621289842063561e-05;0.0;0.0;0.0;7.621289842063561e-05;0.0;0.0;0.0;7.621289842063561e-05,3.999999975690116e-08;0.0;0.0;0.0;3.999999975690116e-08;0.0;0.0;0.0;3.999999975690116e-08
49,620000000,49.62,imu_link,0.002679654867955173,0.0023798740833919003,-0.0016306781259024289,0.000273350890737572,0.0003312985319071877,9.799836159365203,-4.615570795356668e-10,5.330484785068067e-08,-4.9891055593431595e-08,0.9999999999999973,0.0;0.0;0.0;0.0;0.0;0.0;0.0;0.0;0.0,7.621289842063561e-05;0.0;0.0;0.0;7.621289842063561e-05;0.0;0.0;0.0;7.621289842063561e-05,3.999999975690116e-08;0.0;0.0;0.0;3.999999975690116e-08;0.0;0.0;0.0;3.999999975690116e-08
49,640000000,49.64,imu_link,0.002524729953137625,-0.0016321881468181515,-0.005351706930265797,-1.5273078756311803e-05,7.604250484242255e-05,9.79980115708794,-4.6155707960926255e-10,5.330484785039981e-08,-4.989105559343945e-08,0.9999999999999973,0.0;0.0;0.0;0.0;0.0;0.0;0.0;0.0;0.0,7.621289842063561e-05;0.0;0.0;0.0;7.621289842063561e-05;0.0;0.0;0.0;7.621289842063561e-05,3.999999975690116e-08;0.0;0.0;0.0;3.999999975690116e-08;0.0;0.0;0.0;3.999999975690116e-08
49,660000000,49.66,imu_link,0.01231839748831925,-0.0012867726709811765,-0.015472839927729128,0.00022516449812993734,0.0004846741595971679,9.79980728794866,-4.615570794202203e-10,5.330484785053715e-08,-4.989105559344501e-08,0.9999999999999973,0.0;0.0;0.0;0.0;0.0;0.0;0.0;0.0;0.0,7.621289842063561e-05;0.0;0.0;0.0;7.621289842063561e-05;0.0;0.0;0.0;7.621289842063561e-05,3.999999975690116e-08;0.0;0.0;0.0;3.999999975690116e-08;0.0;0.0;0.0;3.999999975690116e-08
49,680000000,49.68,imu_link,0.005630002077648024,-0.008163144829940194,-0.0019128261311920091,0.0003019344803944035,8.787989746069492e-05,9.800140310953738,-4.6155707961187024e-10,5.330484785071366e-08,-4.9891055593448886e-08,0.9999999999999973,0.0;0.0;0.0;0.0;0.0;0.0;0.0;0.0;0.0,7.621289842063561e-05;0.0;0.0;0.0;7.621289842063561e-05;0.0;0.0;0.0;7.621289842063561e-05,3.999999975690116e-08;0.0;0.0;0.0;3.999999975690116e-08;0.0;0.0;0.0;3.999999975690116e-08
49,700000000,49.7,imu_link,-0.006673308294166922,0.013674760965782013,-0.0018167752721407384,5.3204686538884174e-05,-0.00013836410018322422,9.799802198261897,-4.6155707956100525e-10,5.330484785038029e-08,-4.989105559345239e-08,0.9999999999999973,0.0;0.0;0.0;0.0;0.0;0.0;0.0;0.0;0.0,7.621289842063561e-05;0.0;0.0;0.0;7.621289842063561e-05;0.0;0.0;0.0;7.621289842063561e-05,3.999999975690116e-08;0.0;0.0;0.0;3.999999975690116e-08;0.0;0.0;0.0;3.999999975690116e-08
49,720000000,49.72,imu_link,0.0012524792410165333,0.004262677397805147,-0.005809883038867008,-0.0001431211444639708,-3.3315057255334685e-05,9.79980836941188,-4.6155707961578135e-10,5.3304847850569185e-08,-4.9891055593457284e-08,0.9999999999999973,0.0;0.0;0.0;0.0;0.0;0.0;0.0;0.0;0.0,7.621289842063561e-05;0.0;0.0;0.0;7.621289842063561e-05;0.0;0.0;0.0;7.621289842063561e-05,3.999999975690116e-08;0.0;0.0;0.0;3.999999975690116e-08;0.0;0.0;0.0;3.999999975690116e-08
49,740000000,49.74,imu_link,0.0024196941408791382,-0.00032693436457322905,0.003890490349852885,0.00031131672515117214,2.2297422066725245e-05,9.799708342024914,-4.615570794448139e-10,5.330484785070575e-08,-4.989105559346068e-08,0.9999999999999973,0.0;0.0;0.0;0.0;0.0;0.0;0.0;0.0;0.0,7.621289842063561e-05;0.0;0.0;0.0;7.621289842063561e-05;0.0;0.0;0.0;7.621289842063561e-05,3.999999975690116e-08;0.0;0.0;0.0;3.999999975690116e-08;0.0;0.0;0.0;3.999999975690116e-08
49,760000000,49.76,imu_link,0.010133045283740268,-0.010888983405498827,0.01330073767369671,-5.185943395220233e-05,6.253500460581799e-05,9.800104892718403,-4.615570795166265e-10,5.330484785089275e-08,-4.98910555934662e-08,0.9999999999999973,0.0;0.0;0.0;0.0;0.0;0.0;0.0;0.0;0.0,7.621289842063561e-05;0.0;0.0;0.0;7.621289842063561e-05;0.0;0.0;0.0;7.621289842063561e-05,3.999999975690116e-08;0.0;0.0;0.0;3.999999975690116e-08;0.0;0.0;0.0;3.999999975690116e-08
49,780000000,49.78,imu_link,0.013297349709943389,-0.004052039408540191,0.001813822004380039,-1.2266871456655543e-05,4.28139292155299e-05,9.800044829301166,-4.6155707961118223e-10,5.330484785054582e-08,-4.989105559346881e-08,0.9999999999999973,0.0;0.0;0.0;0.0;0.0;0.0;0.0;0.0;0.0,7.621289842063561e-05;0.0;0.0;0.0;7.621289842063561e-05;0.0;0.0;0.0;7.621289842063561e-05,3.999999975690116e-08;0.0;0.0;0.0;3.999999975690116e-08;0.0;0.0;0.0;3.999999975690116e-08
49,800000000,49.8,imu_link,0.0038074093050488632,0.009120089009073408,0.015595813153473803,-0.0003358265506042876,0.0003470611568634709,9.800015417662816,-4.615570794262167e-10,5.3304847850695154e-08,-4.9891055593473265e-08,0.9999999999999973,0.0;0.0;0.0;0.0;0.0;0.0;0.0;0.0;0.0,7.621289842063561e-05;0.0;0.0;0.0;7.621289842063561e-05;0.0;0.0;0.0;7.621289842063561e-05,3.999999975690116e-08;0.0;0.0;0.0;3.999999975690116e-08;0.0;0.0;0.0;3.999999975690116e-08
49,820000000,49.82,imu_link,-0.005584269844279959,-0.010994059978489007,-0.011961552065419295,-6.165979668973885e-05,0.0001116635971858725,9.799936692546634,-4.615570794848521e-10,5.330484785087127e-08,-4.989105559347856e-08,0.9999999999999973,0.0;0.0;0.0;0.0;0.0;0.0;0.0;0.0;0.0,7.621289842063561e-05;0.0;0.0;0.0;7.621289842063561e-05;0.0;0.0;0.0;7.621289842063561e-05,3.999999975690116e-08;0.0;0.0;0.0;3.999999975690116e-08;0.0;0.0;0.0;3.999999975690116e-08
49,840000000,49.84,imu_link,-0.00951642132503935,-0.006948394092079042,0.023129334884432695,4.689522294270346e-05,-0.00011719299031579469,9.800119001783022,-4.6155707948784743e-10,5.330484785034797e-08,-4.9891055593481424e-08,0.9999999999999973,0.0;0.0;0.0;0.0;0.0;0.0;0.0;0.0;0.0,7.621289842063561e-05;0.0;0.0;0.0;7.621289842063561e-05;0.0;0.0;0.0;7.621289842063561e-05,3.999999975690116e-08;0.0;0.0;0.0;3.999999975690116e-08;0.0;0.0;0.0;3.999999975690116e-08
49,860000000,49.86,imu_link,0.0018120052139362131,0.0002600298866385998,0.006418413181973948,0.00015723377163860832,2.0574781435323794e-05,9.799984023232067,-4.6155707965535316e-10,5.3304847850717766e-08,-4.989105559348522e-08,0.9999999999999973,0.0;0.0;0.0;0.0;0.0;0.0;0.0;0.0;0.0,7.621289842063561e-05;0.0;0.0;0.0;7.621289842063561e-05;0.0;0.0;0.0;7.621289842063561e-05,3.999999975690116e-08;0.0;0.0;0.0;3.999999975690116e-08;0.0;0.0;0.0;3.999999975690116e-08
49,880000000,49.88,imu_link,-0.00884945451028031,0.008060994042663245,0.0018829551188849873,0.0001338507505078072,-0.00020168097672910713,9.799712128982792,-4.615570794662214e-10,5.330484785084898e-08,-4.9891055593488094e-08,0.9999999999999973,0.0;0.0;0.0;0.0;0.0;0.0;0.0;0.0;0.0,7.621289842063561e-05;0.0;0.0;0.0;7.621289842063561e-05;0.0;0.0;0.0;7.621289842063561e-05,3.999999975690116e-08;0.0;0.0;0.0;3.999999975690116e-08;0.0;0.0;0.0;3.999999975690116e-08
49,900000000,49.9,imu_link,0.023111039003287977,-0.004378713392930646,-0.015211068612426788,0.0004503267238694695,3.3962690151837925e-07,9.800144694332825,-4.615570794552234e-10,5.3304847850328925e-08,-4.989105559349011e-08,0.9999999999999973,0.0;0.0;0.0;0.0;0.0;0.0;0.0;0.0;0.0,7.621289842063561e-05;0.0;0.0;0.0;7.621289842063561e-05;0.0;0.0;0.0;7.621289842063561e-05,3.999999975690116e-08;0.0;0.0;0.0;3.999999975690116e-08;0.0;0.0;0.0;3.999999975690116e-08
49,920000000,49.92,imu_link,0.005202879176306836,-0.008619590710561969,0.006639007438944531,0.00017545847338166042,-9.525085862981918e-05,9.79980910049854,-4.6155707953366274e-10,5.330484785051935e-08,-4.989105559349359e-08,0.9999999999999973,0.0;0.0;0.0;0.0;0.0;0.0;0.0;0.0;0.0,7.621289842063561e-05;0.0;0.0;0.0;7.621289842063561e-05;0.0;0.0;0.0;7.621289842063561e-05,3.999999975690116e-08;0.0;0.0;0.0;3.999999975690116e-08;0.0;0.0;0.0;3.999999975690116e-08
49,940000000,49.94,imu_link,0.0028131065820072246,-0.00292941865770292,0.00914741910687965,-4.441753959736456e-05,-4.30831799597508e-05,9.79972760810285,-4.615570797103219e-10,5.330484785088124e-08,-4.9891055593497564e-08,0.9999999999999973,0.0;0.0;0.0;0.0;0.0;0.0;0.0;0.0;0.0,7.621289842063561e-05;0.0;0.0;0.0;7.621289842063561e-05;0.0;0.0;0.0;7.621289842063561e-05,3.999999975690116e-08;0.0;0.0;0.0;3.999999975690116e-08;0.0;0.0;0.0;3.999999975690116e-08
49,960000000,49.96,imu_link,0.009876061575524873,0.014468110434647226,-0.0016682515158304148,0.0001520656986344758,0.00032685077394238826,9.799901284224637,-4.6155707941556684e-10,5.3304847850840354e-08,-4.9891055593500416e-08,0.9999999999999973,0.0;0.0;0.0;0.0;0.0;0.0;0.0;0.0;0.0,7.621289842063561e-05;0.0;0.0;0.0;7.621289842063561e-05;0.0;0.0;0.0;7.621289842063561e-05,3.999999975690116e-08;0.0;0.0;0.0;3.999999975690116e-08;0.0;0.0;0.0;3.999999975690116e-08
49,980000000,49.98,imu_link,-0.007092496127678925,0.005817582552157342,0.0006361151681038764,0.00011251183510766227,-0.00012518887147514447,9.79956534672875,-4.6155707961471357e-10,5.3304847850435294e-08,-4.989105559350586e-08,0.9999999999999973,0.0;0.0;0.0;0.0;0.0;0.0;0.0;0.0;0.0,7.621289842063561e-05;0.0;0.0;0.0;7.621289842063561e-05;0.0;0.0;0.0;7.621289842063561e-05,3.999999975690116e-08;0.0;0.0;0.0;3.999999975690116e-08;0.0;0.0;0.0;3.999999975690116e-08
50,0,50.0,imu_link,0.004930882959100529,-0.014008131233931052,-0.006763080892277315,0.00032703649586882674,0.00017860525850241725,9.79978447878522,-4.615570794045376e-10,5.330484785076785e-08,-4.989105559351138e-08,0.9999999999999973,0.0;0.0;0.0;0.0;0.0;0.0;0.0;0.0;0.0,7.621289842063561e-05;0.0;0.0;0.0;7.621289842063561e-05;0.0;0.0;0.0;7.621289842063561e-05,3.999999975690116e-08;0.0;0.0;0.0;3.999999975690116e-08;0.0;0.0;0.0;3.999999975690116e-08
50,20000000,50.02,imu_link,0.006421485703577033,0.0011262241088465365,-0.01195683256535075,0.00011026052450340592,0.000539614165073121,9.799682976647913,-4.615570795083701e-10,5.3304847850311005e-08,-4.9891055593516305e-08,0.9999999999999973,0.0;0.0;0.0;0.0;0.0;0.0;0.0;0.0;0.0,7.621289842063561e-05;0.0;0.0;0.0;7.621289842063561e-05;0.0;0.0;0.0;7.621289842063561e-05,3.999999975690116e-08;0.0;0.0;0.0;3.999999975690116e-08;0.0;0.0;0.0;3.999999975690116e-08
50,40000000,50.04,imu_link,-0.0006545425275411383,-0.009371648359596344,-0.007348791002687315,0.00029445535723471983,-0.00016417428541221234,9.799865365310835,-4.6155707960217175e-10,5.330484785048768e-08,-4.989105559352355e-08,0.9999999999999973,0.0;0.0;0.0;0.0;0.0;0.0;0.0;0.0;0.0,7.621289842063561e-05;0.0;0.0;0.0;7.621289842063561e-05;0.0;0.0;0.0;7.621289842063561e-05,3.999999975690116e-08;0.0;0.0;0.0;3.999999975690116e-08;0.0;0.0;0.0;3.999999975690116e-08
50,60000000,50.06,imu_link,-0.0024360127852798086,0.009576588354732393,0.012007678121678555,0.00012762036088845817,0.0004001451815465154,9.7997682917329,-4.6155707956903857e-10,5.3304847850612655e-08,-4.98910555935276e-08,0.9999999999999973,0.0;0.0;0.0;0.0;0.0;0.0;0.0;0.0;0.0,7.621289842063561e-05;0.0;0.0;0.0;7.621289842063561e-05;0.0;0.0;0.0;7.621289842063561e-05,3.999999975690116e-08;0.0;0.0;0.0;3.999999975690116e-08;0.0;0.0;0.0;3.999999975690116e-08
50,80000000,50.08,imu_link,-0.011001559358515113,0.01561900648146998,0.011743739650867507,0.0003417284268352228,0.0001269273849260701,9.799764597038122,-4.6155707952940767e-10,5.33048478502744e-08,-4.989105559353189e-08,0.9999999999999973,0.0;0.0;0.0;0.0;0.0;0.0;0.0;0.0;0.0,7.621289842063561e-05;0.0;0.0;0.0;7.621289842063561e-05;0.0;0.0;0.0;7.621289842063561e-05,3.999999975690116e-08;0.0;0.0;0.0;3.999999975690116e-08;0.0;0.0;0.0;3.999999975690116e-08
50,100000000,50.1,imu_link,0.012780177649283733,0.017912292489122277,-0.0136490838779655,3.4883724589978524e-05,0.00028711009336582086,9.799678367465004,-4.615570795993907e-10,5.3304847850569e-08,-4.989105559353651e-08,0.9999999999999973,0.0;0.0;0.0;0.0;0.0;0.0;0.0;0.0;0.0,7.621289842063561e-05;0.0;0.0;0.0;7.621289842063561e-05;0.0;0.0;0.0;7.621289842063561e-05,3.999999975690116e-08;0.0;0.0;0.0;3.999999975690116e-08;0.0;0.0;0.0;3.999999975690116e-08
50,120000000,50.12,imu_link,-0.009304049319629703,-0.010996486897493317,-0.00011051959307114988,0.0001585814326045345,-0.00023249834650612055,9.799799971968946,-4.6155707944436316e-10,5.3304847850700865e-08,-4.9891055593542265e-08,0.9999999999999973,0.0;0.0;0.0;0.0;0.0;0.0;0.0;0.0;0.0,7.621289842063561e-05;0.0;0.0;0.0;7.621289842063561e-05;0.0;0.0;0.0;7.621289842063561e-05,3.999999975690116e-08;0.0;0.0;0.0;3.999999975690116e-08;0.0;0.0;0.0;3.999999975690116e-08
50,140000000,50.14,imu_link,-0.003146573616024306,-0.011724928512910756,0.0011521462743458546,0.00019106221421029055,0.00031266317826865437,9.800119308609238,-4.6155707951416563e-10,5.330484785087433e-08,-4.9891055593547546e-08,0.9999999999999973,0.0;0.0;0.0;0.0;0.0;0.0;0.0;0.0;0.0,7.621289842063561e-05;0.0;0.0;0.0;7.621289842063561e-05;0.0;0.0;0.0;7.621289842063561e-05,3.999999975690116e-08;0.0;0.0;0.0;3.999999975690116e-08;0.0;0.0;0.0;3.999999975690116e-08
50,160000000,50.16,imu_link,0.0013683008865976165,0.0027235151320086017,0.004907967528795488,0.00034149863503178034,0.0001413437433710552,9.800204197183778,-4.615570796072219e-10,5.3304847850528964e-08,-4.9891055593550894e-08,0.9999999999999973,0.0;0.0;0.0;0.0;0.0;0.0;0.0;0.0;0.0,7.621289842063561e-05;0.0;0.0;0.0;7.621289842063561e-05;0.0;0.0;0.0;7.621289842063561e-05,3.999999975690116e-08;0.0;0.0;0.0;3.999999975690116e-08;0.0;0.0;0.0;3.999999975690116e-08
50,180000000,50.18,imu_link,0.010775471199381133,0.008416210980225273,-0.010211754062820256,0.0002851342499886971,0.00035202405067938944,9.800095887056685,-4.6155707942675404e-10,5.330484785054392e-08,-4.989105559355598e-08,0.9999999999999973,0.0;0.0;0.0;0.0;0.0;0.0;0.0;0.0;0.0,7.621289842063561e-05;0.0;0.0;0.0;7.621289842063561e-05;0.0;0.0;0.0;7.621289842063561e-05,3.999999975690116e-08;0.0;0.0;0.0;3.999999975690116e-08;0.0;0.0;0.0;3.999999975690116e-08
50,200000000,50.2,imu_link,0.0013923818305236317,-0.013783706790658587,-0.0030601781004015766,0.00019839528651478336,0.00010670389870394077,9.799897886825201,-4.615570794866203e-10,5.330484785073444e-08,-4.989105559356008e-08,0.9999999999999973,0.0;0.0;0.0;0.0;0.0;0.0;0.0;0.0;0.0,7.621289842063561e-05;0.0;0.0;0.0;7.621289842063561e-05;0.0;0.0;0.0;7.621289842063561e-05,3.999999975690116e-08;0.0;0.0;0.0;3.999999975690116e-08;0.0;0.0;0.0;3.999999975690116e-08
50,220000000,50.22,imu_link,-0.000974165376386975,-0.009629853296567356,-0.00651843539624589,0.000214084131246199,7.36001065169015e-05,9.80002308383032,-4.615570795607886e-10,5.330484785027499e-08,-4.9891055593565724e-08,0.9999999999999973,0.0;0.0;0.0;0.0;0.0;0.0;0.0;0.0;0.0,7.621289842063561e-05;0.0;0.0;0.0;7.621289842063561e-05;0.0;0.0;0.0;7.621289842063561e-05,3.999999975690116e-08;0.0;0.0;0.0;3.999999975690116e-08;0.0;0.0;0.0;3.999999975690116e-08
50,240000000,50.24,imu_link,0.011848808062274096,0.004283938964605262,-0.0059800101305437,-5.060588711372144e-05,8.12824879763804e-05,9.80002918144628,-4.6155707946507184e-10,5.330484785059196e-08,-4.989105559357348e-08,0.9999999999999973,0.0;0.0;0.0;0.0;0.0;0.0;0.0;0.0;0.0,7.621289842063561e-05;0.0;0.0;0.0;7.621289842063561e-05;0.0;0.0;0.0;7.621289842063561e-05,3.999999975690116e-08;0.0;0.0;0.0;3.999999975690116e-08;0.0;0.0;0.0;3.999999975690116e-08
50,260000000,50.26,imu_link,8.541307208062506e-05,-0.007172539277285745,0.008716235797208139,0.0002112699481044324,0.0003510397136367037,9.799714829374208,-4.6155707942382246e-10,5.330484785071569e-08,-4.989105559358e-08,0.9999999999999973,0.0;0.0;0.0;0.0;0.0;0.0;0.0;0.0;0.0,7.621289842063561e-05;0.0;0.0;0.0;7.621289842063561e-05;0.0;0.0;0.0;7.621289842063561e-05,3.999999975690116e-08;0.0;0.0;0.0;3.999999975690116e-08;0.0;0.0;0.0;3.999999975690116e-08
50,280000000,50.28,imu_link,0.003218177443637947,0.011964546823360955,0.01633110298552997,9.378032607232147e-05,3.2264266468287826e-05,9.799949284125487,-4.615570793869902e-10,5.330484785038719e-08,-4.989105559358777e-08,0.9999999999999973,0.0;0.0;0.0;0.0;0.0;0.0;0.0;0.0;0.0,7.621289842063561e-05;0.0;0.0;0.0;7.621289842063561e-05;0.0;0.0;0.0;7.621289842063561e-05,3.999999975690116e-08;0.0;0.0;0.0;3.999999975690116e-08;0.0;0.0;0.0;3.999999975690116e-08
50,300000000,50.3,imu_link,0.003449802952941945,0.011947141141570583,-0.0008017886428604321,2.8419056707195458e-05,2.07647839834927e-05,9.799624426265595,-4.61557079438132e-10,5.330484785056971e-08,-4.989105559359353e-08,0.9999999999999973,0.0;0.0;0.0;0.0;0.0;0.0;0.0;0.0;0.0,7.621289842063561e-05;0.0;0.0;0.0;7.621289842063561e-05;0.0;0.0;0.0;7.621289842063561e-05,3.999999975690116e-08;0.0;0.0;0.0;3.999999975690116e-08;0.0;0.0;0.0;3.999999975690116e-08
50,320000000,50.32,imu_link,-0.005707333493003808,0.009475610248179228,0.0016300165869380621,-0.00022989619661194406,0.0004322442664737365,9.799701241521854,-4.615570793859893e-10,5.330484785057756e-08,-4.989105559359987e-08,0.9999999999999973,0.0;0.0;0.0;0.0;0.0;0.0;0.0;0.0;0.0,7.621289842063561e-05;0.0;0.0;0.0;7.621289842063561e-05;0.0;0.0;0.0;7.621289842063561e-05,3.999999975690116e-08;0.0;0.0;0.0;3.999999975690116e-08;0.0;0.0;0.0;3.999999975690116e-08
50,340000000,50.34,imu_link,-0.014487309562401194,-0.014650576689707907,0.020031128626762183,-6.219823348030988e-05,-6.777615474695616e-06,9.79978480712509,-4.6155707969087834e-10,5.3304847850808233e-08,-4.9891055593607506e-08,0.9999999999999973,0.0;0.0;0.0;0.0;0.0;0.0;0.0;0.0;0.0,7.621289842063561e-05;0.0;0.0;0.0;7.621289842063561e-05;0.0;0.0;0.0;7.621289842063561e-05,3.999999975690116e-08;0.0;0.0;0.0;3.999999975690116e-08;0.0;0.0;0.0;3.999999975690116e-08
50,360000000,50.36,imu_link,-0.0028774182597112135,0.006643929077511357,-0.006196478436997304,-6.369141174006554e-05,7.764829507938458e-05,9.799893221990848,-4.6155707952411335e-10,5.3304847850483065e-08,-4.9891055593614455e-08,0.9999999999999973,0.0;0.0;0.0;0.0;0.0;0.0;0.0;0.0;0.0,7.621289842063561e-05;0.0;0.0;0.0;7.621289842063561e-05;0.0;0.0;0.0;7.621289842063561e-05,3.999999975690116e-08;0.0;0.0;0.0;3.999999975690116e-08;0.0;0.0;0.0;3.999999975690116e-08
50,380000000,50.38,imu_link,-0.002698113134685234,-0.003937172633273112,0.0007257072573666504,-0.00034932565075453136,0.00017201737269971292,9.80005179656135,-4.6155707960211726e-10,5.3304847850670643e-08,-4.989105559362389e-08,0.9999999999999973,0.0;0.0;0.0;0.0;0.0;0.0;0.0;0.0;0.0,7.621289842063561e-05;0.0;0.0;0.0;7.621289842063561e-05;0.0;0.0;0.0;7.621289842063561e-05,3.999999975690116e-08;0.0;0.0;0.0;3.999999975690116e-08;0.0;0.0;0.0;3.999999975690116e-08
50,400000000,50.4,imu_link,0.0013384746724220762,0.005448455299054838,0.004405927528312351,0.00010896746238629635,-3.707633838488387e-05,9.800078011336922,-4.615570795555457e-10,5.330484785033337e-08,-4.989105559362965e-08,0.9999999999999973,0.0;0.0;0.0;0.0;0.0;0.0;0.0;0.0;0.0,7.621289842063561e-05;0.0;0.0;0.0;7.621289842063561e-05;0.0;0.0;0.0;7.621289842063561e-05,3.999999975690116e-08;0.0;0.0;0.0;3.999999975690116e-08;0.0;0.0;0.0;3.999999975690116e-08
50,420000000,50.42,imu_link,-0.00593863220676755,-0.0045838248897575725,0.003695286020289554,-1.2689891406959572e-05,0.0003800184127716093,9.80015636152877,-4.615570793887336e-10,5.330484785035555e-08,-4.9891055593637013e-08,0.9999999999999973,0.0;0.0;0.0;0.0;0.0;0.0;0.0;0.0;0.0,7.621289842063561e-05;0.0;0.0;0.0;7.621289842063561e-05;0.0;0.0;0.0;7.621289842063561e-05,3.999999975690116e-08;0.0;0.0;0.0;3.999999975690116e-08;0.0;0.0;0.0;3.999999975690116e-08
50,440000000,50.44,imu_link,0.007315970091829017,-0.006858192278640476,0.01719222576927546,0.00018605517597184551,4.050145882966804e-05,9.800086369177928,-4.615570794522403e-10,5.330484785067251e-08,-4.989105559363984e-08,0.9999999999999973,0.0;0.0;0.0;0.0;0.0;0.0;0.0;0.0;0.0,7.621289842063561e-05;0.0;0.0;0.0;7.621289842063561e-05;0.0;0.0;0.0;7.621289842063561e-05,3.999999975690116e-08;0.0;0.0;0.0;3.999999975690116e-08;0.0;0.0;0.0;3.999999975690116e-08
50,460000000,50.46,imu_link,0.0002527731583858436,-0.004590459397659307,-0.0029382209092130842,-0.000292852077399299,0.0001809406926039592,9.799804005859006,-4.6155707950895113e-10,5.330484785086426e-08,-4.9891055593644035e-08,0.9999999999999973,0.0;0.0;0.0;0.0;0.0;0.0;0.0;0.0;0.0,7.621289842063561e-05;0.0;0.0;0.0;7.621289842063561e-05;0.0;0.0;0.0;7.621289842063561e-05,3.999999975690116e-08;0.0;0.0;0.0;3.999999975690116e-08;0.0;0.0;0.0;3.999999975690116e-08
50,480000000,50.48,imu_link,-0.003680724963718148,0.0012624712546029301,0.015038023347202981,-0.0003174320503475875,9.835664335157051e-05,9.79970346252289,-4.615570796000043e-10,5.330484785040847e-08,-4.989105559364706e-08,0.9999999999999973,0.0;0.0;0.0;0.0;0.0;0.0;0.0;0.0;0.0,7.621289842063561e-05;0.0;0.0;0.0;7.621289842063561e-05;0.0;0.0;0.0;7.621289842063561e-05,3.999999975690116e-08;0.0;0.0;0.0;3.999999975690116e-08;0.0;0.0;0.0;3.999999975690116e-08
50,500000000,50.5,imu_link,-0.0003419602350202543,0.0025498169953031315,-0.00952905740499701,0.0003752188585858316,0.00020645215578666675,9.800258142055217,-4.6155707942263137e-10,5.330484785043093e-08,-4.989105559365299e-08,0.9999999999999973,0.0;0.0;0.0;0.0;0.0;0.0;0.0;0.0;0.0,7.621289842063561e-05;0.0;0.0;0.0;7.621289842063561e-05;0.0;0.0;0.0;7.621289842063561e-05,3.999999975690116e-08;0.0;0.0;0.0;3.999999975690116e-08;0.0;0.0;0.0;3.999999975690116e-08
50,520000000,50.52,imu_link,-0.007776491351745624,-0.006960946865911421,0.004536872615851639,-0.00023914629779815574,0.0002566814993298758,9.799722753615479,-4.615570793482121e-10,5.330484785074104e-08,-4.989105559365998e-08,0.9999999999999973,0.0;0.0;0.0;0.0;0.0;0.0;0.0;0.0;0.0,7.621289842063561e-05;0.0;0.0;0.0;7.621289842063561e-05;0.0;0.0;0.0;7.621289842063561e-05,3.999999975690116e-08;0.0;0.0;0.0;3.999999975690116e-08;0.0;0.0;0.0;3.999999975690116e-08
50,540000000,50.54,imu_link,0.0035524222007508382,0.007147446996014429,0.0034508076456014284,-0.00013622556961249613,0.00041988528425772554,9.799835524210929,-4.615570793843085e-10,5.330484785034223e-08,-4.989105559366705e-08,0.9999999999999973,0.0;0.0;0.0;0.0;0.0;0.0;0.0;0.0;0.0,7.621289842063561e-05;0.0;0.0;0.0;7.621289842063561e-05;0.0;0.0;0.0;7.621289842063561e-05,3.999999975690116e-08;0.0;0.0;0.0;3.999999975690116e-08;0.0;0.0;0.0;3.999999975690116e-08
50,560000000,50.56,imu_link,0.011203516307310575,-0.014079754422252072,0.019270983913910782,-0.00028206795181877955,4.68502342289306e-06,9.799814102873057,-4.6155707949145197e-10,5.3304847850469625e-08,-4.989105559367172e-08,0.9999999999999973,0.0;0.0;0.0;0.0;0.0;0.0;0.0;0.0;0.0,7.621289842063561e-05;0.0;0.0;0.0;7.621289842063561e-05;0.0;0.0;0.0;7.621289842063561e-05,3.999999975690116e-08;0.0;0.0;0.0;3.999999975690116e-08;0.0;0.0;0.0;3.999999975690116e-08
50,580000000,50.58,imu_link,0.004585963403937733,0.0018783643517127175,-0.002288124888819025,-0.00011305119916886196,-5.563560785819705e-07,9.79979490732459,-4.615570794238011e-10,5.3304847850778845e-08,-4.989105559367841e-08,0.9999999999999973,0.0;0.0;0.0;0.0;0.0;0.0;0.0;0.0;0.0,7.621289842063561e-05;0.0;0.0;0.0;7.621289842063561e-05;0.0;0.0;0.0;7.621289842063561e-05,3.999999975690116e-08;0.0;0.0;0.0;3.999999975690116e-08;0.0;0.0;0.0;3.999999975690116e-08
50,600000000,50.6,imu_link,0.011774995881969074,-0.0022287433047668464,0.018127648691081712,0.0003847268557868064,8.153998900972369e-05,9.799778724451492,-4.615570795494433e-10,5.330484785031906e-08,-4.989105559368409e-08,0.9999999999999973,0.0;0.0;0.0;0.0;0.0;0.0;0.0;0.0;0.0,7.621289842063561e-05;0.0;0.0;0.0;7.621289842063561e-05;0.0;0.0;0.0;7.621289842063561e-05,3.999999975690116e-08;0.0;0.0;0.0;3.999999975690116e-08;0.0;0.0;0.0;3.999999975690116e-08
50,620000000,50.62,imu_link,-0.004940462393377794,0.006702663139294048,-0.010738413157552423,-0.00021395422074542414,-0.0003544180011218307,9.800026666715414,-4.615570795107098e-10,5.330484785045464e-08,-4.989105559368919e-08,0.9999999999999973,0.0;0.0;0.0;0.0;0.0;0.0;0.0;0.0;0.0,7.621289842063561e-05;0.0;0.0;0.0;7.621289842063561e-05;0.0;0.0;0.0;7.621289842063561e-05,3.999999975690116e-08;0.0;0.0;0.0;3.999999975690116e-08;0.0;0.0;0.0;3.999999975690116e-08
50,640000000,50.64,imu_link,0.009578690252357127,0.014427770287617497,0.002517020722713506,9.841330491416749e-05,8.287580474983832e-05,9.799661770147255,-4.6155707944060177e-10,5.330484785076294e-08,-4.989105559369583e-08,0.9999999999999973,0.0;0.0;0.0;0.0;0.0;0.0;0.0;0.0;0.0,7.621289842063561e-05;0.0;0.0;0.0;7.621289842063561e-05;0.0;0.0;0.0;7.621289842063561e-05,3.999999975690116e-08;0.0;0.0;0.0;3.999999975690116e-08;0.0;0.0;0.0;3.999999975690116e-08
50,660000000,50.66,imu_link,0.0037624278339036614,0.010610406226690688,0.004722823048686145,0.00021127736160635128,5.0599362054504454e-05,9.79969224365077,-4.615570793944072e-10,5.330484785032698e-08,-4.9891055593699515e-08,0.9999999999999973,0.0;0.0;0.0;0.0;0.0;0.0;0.0;0.0;0.0,7.621289842063561e-05;0.0;0.0;0.0;7.621289842063561e-05;0.0;0.0;0.0;7.621289842063561e-05,3.999999975690116e-08;0.0;0.0;0.0;3.999999975690116e-08;0.0;0.0;0.0;3.999999975690116e-08
50,680000000,50.68,imu_link,0.002298064299745724,0.00017058996528679382,0.014597832949846458,0.00010948536494493957,-4.6895741115934576e-05,9.799858583563617,-4.615570794836021e-10,5.330484785032999e-08,-4.9891055593703585e-08,0.9999999999999973,0.0;0.0;0.0;0.0;0.0;0.0;0.0;0.0;0.0,7.621289842063561e-05;0.0;0.0;0.0;7.621289842063561e-05;0.0;0.0;0.0;7.621289842063561e-05,3.999999975690116e-08;0.0;0.0;0.0;3.999999975690116e-08;0.0;0.0;0.0;3.999999975690116e-08
50,700000000,50.7,imu_link,-0.009206635280416847,0.013691904464647957,-0.01632475386374988,4.62798172399106e-05,0.00018825672010300038,9.800147034030024,-4.6155707965164165e-10,5.330484785069682e-08,-4.9891055593709256e-08,0.9999999999999973,0.0;0.0;0.0;0.0;0.0;0.0;0.0;0.0;0.0,7.621289842063561e-05;0.0;0.0;0.0;7.621289842063561e-05;0.0;0.0;0.0;7.621289842063561e-05,3.999999975690116e-08;0.0;0.0;0.0;3.999999975690116e-08;0.0;0.0;0.0;3.999999975690116e-08
50,720000000,50.72,imu_link,-0.00996962800912512,-0.012857273921120141,-0.009663789332635144,0.00010047034249558177,-0.00024354785645701446,9.799836390514924,-4.615570794755982e-10,5.3304847850384174e-08,-4.9891055593714735e-08,0.9999999999999973,0.0;0.0;0.0;0.0;0.0;0.0;0.0;0.0;0.0,7.621289842063561e-05;0.0;0.0;0.0;7.621289842063561e-05;0.0;0.0;0.0;7.621289842063561e-05,3.999999975690116e-08;0.0;0.0;0.0;3.999999975690116e-08;0.0;0.0;0.0;3.999999975690116e-08
50,740000000,50.74,imu_link,0.004517449590083885,0.00474745077878535,0.011968560255778674,0.00023853477376294455,0.0005163258150846998,9.800143837891893,-4.615570794455754e-10,5.330484785050512e-08,-4.989105559372071e-08,0.9999999999999973,0.0;0.0;0.0;0.0;0.0;0.0;0.0;0.0;0.0,7.621289842063561e-05;0.0;0.0;0.0;7.621289842063561e-05;0.0;0.0;0.0;7.621289842063561e-05,3.999999975690116e-08;0.0;0.0;0.0;3.999999975690116e-08;0.0;0.0;0.0;3.999999975690116e-08
50,760000000,50.76,imu_link,0.010663555331279953,0.0008242144789561675,-0.006754544516965401,1.9935697160130113e-05,9.558116145349712e-05,9.799886492868492,-4.615570796420187e-10,5.330484785068757e-08,-4.989105559372709e-08,0.9999999999999973,0.0;0.0;0.0;0.0;0.0;0.0;0.0;0.0;0.0,7.621289842063561e-05;0.0;0.0;0.0;7.621289842063561e-05;0.0;0.0;0.0;7.621289842063561e-05,3.999999975690116e-08;0.0;0.0;0.0;3.999999975690116e-08;0.0;0.0;0.0;3.999999975690116e-08
50,780000000,50.78,imu_link,0.009035258162946503,-0.023896384039498172,-0.0006586004230147707,-0.00010485970059977492,-7.074107474259885e-05,9.799854730776739,-4.6155707949650263e-10,5.330484785083028e-08,-4.989105559373297e-08,0.9999999999999973,0.0;0.0;0.0;0.0;0.0;0.0;0.0;0.0;0.0,7.621289842063561e-05;0.0;0.0;0.0;7.621289842063561e-05;0.0;0.0;0.0;7.621289842063561e-05,3.999999975690116e-08;0.0;0.0;0.0;3.999999975690116e-08;0.0;0.0;0.0;3.999999975690116e-08
50,800000000,50.8,imu_link,0.0025416892656383717,0.0002878599993286985,0.002159426559427988,0.0001948230317344962,0.00033414227255520047,9.799719840027107,-4.6155707945290613e-10,5.3304847850497776e-08,-4.989105559373906e-08,0.9999999999999973,0.0;0.0;0.0;0.0;0.0;0.0;0.0;0.0;0.0,7.621289842063561e-05;0.0;0.0;0.0;7.621289842063561e-05;0.0;0.0;0.0;7.621289842063561e-05,3.999999975690116e-08;0.0;0.0;0.0;3.999999975690116e-08;0.0;0.0;0.0;3.999999975690116e-08
50,820000000,50.82,imu_link,0.006621882655657457,0.007228320788505385,-0.0037778703706558693,-0.00027417103505871887,0.00018755716176603024,9.799817195980438,-4.615570796440589e-10,5.3304847850676275e-08,-4.989105559374659e-08,0.9999999999999973,0.0;0.0;0.0;0.0;0.0;0.0;0.0;0.0;0.0,7.621289842063561e-05;0.0;0.0;0.0;7.621289842063561e-05;0.0;0.0;0.0;7.621289842063561e-05,3.999999975690116e-08;0.0;0.0;0.0;3.999999975690116e-08;0.0;0.0;0.0;3.999999975690116e-08
50,840000000,50.84,imu_link,0.013605866052052216,-0.0017963294804846672,0.01039917636222087,0.000179112444807106,0.0001585991012540424,9.79969072978944,-4.615570794643215e-10,5.330484785081892e-08,-4.989105559375261e-08,0.9999999999999973,0.0;0.0;0.0;0.0;0.0;0.0;0.0;0.0;0.0,7.621289842063561e-05;0.0;0.0;0.0;7.621289842063561e-05;0.0;0.0;0.0;7.621289842063561e-05,3.999999975690116e-08;0.0;0.0;0.0;3.999999975690116e-08;0.0;0.0;0.0;3.999999975690116e-08
50,860000000,50.86,imu_link,-0.003669276154065115,-0.0044838532109206285,-0.0023918699152324246,-0.00016208254154281382,0.000452914621720818,9.799996233464455,-4.6155707946376546e-10,5.330484785030509e-08,-4.9891055593758225e-08,0.9999999999999973,0.0;0.0;0.0;0.0;0.0;0.0;0.0;0.0;0.0,7.621289842063561e-05;0.0;0.0;0.0;7.621289842063561e-05;0.0;0.0;0.0;7.621289842063561e-05,3.999999975690116e-08;0.0;0.0;0.0;3.999999975690116e-08;0.0;0.0;0.0;3.999999975690116e-08
50,880000000,50.88,imu_link,-0.0031419228442136388,0.0005257634890814153,0.007741904271029073,-0.00011293007813221869,0.0001326608309813008,9.800116712182177,-4.615570793969484e-10,5.3304847850618015e-08,-4.989105559376315e-08,0.9999999999999973,0.0;0.0;0.0;0.0;0.0;0.0;0.0;0.0;0.0,7.621289842063561e-05;0.0;0.0;0.0;7.621289842063561e-05;0.0;0.0;0.0;7.621289842063561e-05,3.999999975690116e-08;0.0;0.0;0.0;3.999999975690116e-08;0.0;0.0;0.0;3.999999975690116e-08
50,900000000,50.9,imu_link,0.0022819327905968198,0.008100776973413645,-0.0012270977532744434,7.28150846766359e-05,-0.0002152307277272255,9.799645480734963,-4.615570794737978e-10,5.330484785080725e-08,-4.98910555937699e-08,0.9999999999999973,0.0;0.0;0.0;0.0;0.0;0.0;0.0;0.0;0.0,7.621289842063561e-05;0.0;0.0;0.0;7.621289842063561e-05;0.0;0.0;0.0;7.621289842063561e-05,3.999999975690116e-08;0.0;0.0;0.0;3.999999975690116e-08;0.0;0.0;0.0;3.999999975690116e-08
50,920000000,50.92,imu_link,0.003513334765269704,0.0014907539399736118,0.005858443675571812,0.0001805054177642868,0.00024452436383262015,9.799845823730756,-4.6155707948083294e-10,5.330484785028907e-08,-4.989105559377463e-08,0.9999999999999973,0.0;0.0;0.0;0.0;0.0;0.0;0.0;0.0;0.0,7.621289842063561e-05;0.0;0.0;0.0;7.621289842063561e-05;0.0;0.0;0.0;7.621289842063561e-05,3.999999975690116e-08;0.0;0.0;0.0;3.999999975690116e-08;0.0;0.0;0.0;3.999999975690116e-08
50,940000000,50.94,imu_link,-0.0095312198406121,-0.008826766707165442,-0.01180908062769151,-5.3582887908205785e-05,-0.0002012647792382751,9.800044660393135,-4.61557079405625e-10,5.330484785060908e-08,-4.989105559378117e-08,0.9999999999999973,0.0;0.0;0.0;0.0;0.0;0.0;0.0;0.0;0.0,7.621289842063561e-05;0.0;0.0;0.0;7.621289842063561e-05;0.0;0.0;0.0;7.621289842063561e-05,3.999999975690116e-08;0.0;0.0;0.0;3.999999975690116e-08;0.0;0.0;0.0;3.999999975690116e-08
50,960000000,50.96,imu_link,0.0057672069512251165,-0.00219530454589121,0.0016924353014383582,6.30713884968125e-05,-9.068926292654737e-05,9.799625377374497,-4.6155707937660973e-10,5.330484785073296e-08,-4.98910555937884e-08,0.9999999999999973,0.0;0.0;0.0;0.0;0.0;0.0;0.0;0.0;0.0,7.621289842063561e-05;0.0;0.0;0.0;7.621289842063561e-05;0.0;0.0;0.0;7.621289842063561e-05,3.999999975690116e-08;0.0;0.0;0.0;3.999999975690116e-08;0.0;0.0;0.0;3.999999975690116e-08
50,980000000,50.98,imu_link,0.00855452832205429,0.011862012780061618,-0.00621785356584348,-0.00017532206802494792,0.00020361185139771283,9.799898114799705,-4.615570794918554e-10,5.330484785027044e-08,-4.9891055593793946e-08,0.9999999999999973,0.0;0.0;0.0;0.0;0.0;0.0;0.0;0.0;0.0,7.621289842063561e-05;0.0;0.0;0.0;7.621289842063561e-05;0.0;0.0;0.0;7.621289842063561e-05,3.999999975690116e-08;0.0;0.0;0.0;3.999999975690116e-08;0.0;0.0;0.0;3.999999975690116e-08
51,0,51.0,imu_link,0.0027114893902153614,-0.001433337343173645,0.020658656074076683,9.4190703135283e-06,6.800693378803842e-05,9.799538020350528,-4.615570794245791e-10,5.330484785059152e-08,-4.9891055593800206e-08,0.9999999999999973,0.0;0.0;0.0;0.0;0.0;0.0;0.0;0.0;0.0,7.621289842063561e-05;0.0;0.0;0.0;7.621289842063561e-05;0.0;0.0;0.0;7.621289842063561e-05,3.999999975690116e-08;0.0;0.0;0.0;3.999999975690116e-08;0.0;0.0;0.0;3.999999975690116e-08
51,20000000,51.02,imu_link,-0.005755030008964018,-0.017997274224661058,0.0002596148148316088,5.6987616297650874e-05,-0.0001666857417207515,9.800112798854917,-4.6155707940084007e-10,5.330484785071714e-08,-4.9891055593803674e-08,0.9999999999999973,0.0;0.0;0.0;0.0;0.0;0.0;0.0;0.0;0.0,7.621289842063561e-05;0.0;0.0;0.0;7.621289842063561e-05;0.0;0.0;0.0;7.621289842063561e-05,3.999999975690116e-08;0.0;0.0;0.0;3.999999975690116e-08;0.0;0.0;0.0;3.999999975690116e-08
51,40000000,51.04,imu_link,-0.009411421139470043,-0.005876852580365475,-0.007915389214587058,-5.262190730301971e-05,0.00014110938368329677,9.800359888990853,-4.615570795970129e-10,5.330484785030402e-08,-4.989105559380921e-08,0.9999999999999973,0.0;0.0;0.0;0.0;0.0;0.0;0.0;0.0;0.0,7.621289842063561e-05;0.0;0.0;0.0;7.621289842063561e-05;0.0;0.0;0.0;7.621289842063561e-05,3.999999975690116e-08;0.0;0.0;0.0;3.999999975690116e-08;0.0;0.0;0.0;3.999999975690116e-08
51,60000000,51.06,imu_link,-0.004708881606018124,-0.0053378814205333235,0.0064570706824677,0.00011823132060459849,2.613235961178756e-05,9.799793415558186,-4.615570795562173e-10,5.3304847850429444e-08,-4.989105559381387e-08,0.9999999999999973,0.0;0.0;0.0;0.0;0.0;0.0;0.0;0.0;0.0,7.621289842063561e-05;0.0;0.0;0.0;7.621289842063561e-05;0.0;0.0;0.0;7.621289842063561e-05,3.999999975690116e-08;0.0;0.0;0.0;3.999999975690116e-08;0.0;0.0;0.0;3.999999975690116e-08
51,80000000,51.08,imu_link,-0.004226213909751345,-0.01159813102577946,0.0007228246626086417,-0.00017118325706111967,0.00025759040274701063,9.799992916441933,-4.615570793482302e-10,5.3304847850749087e-08,-4.989105559382231e-08,0.9999999999999973,0.0;0.0;0.0;0.0;0.0;0.0;0.0;0.0;0.0,7.621289842063561e-05;0.0;0.0;0.0;7.621289842063561e-05;0.0;0.0;0.0;7.621289842063561e-05,3.999999975690116e-08;0.0;0.0;0.0;3.999999975690116e-08;0.0;0.0;0.0;3.999999975690116e-08
51,100000000,51.1,imu_link,-0.004259549625742159,-0.007825250934519442,-0.012707713999555741,0.00012048373584867802,-0.00022169888866625112,9.799804478925845,-4.615570795515802e-10,5.3304847850342445e-08,-4.989105559382411e-08,0.9999999999999973,0.0;0.0;0.0;0.0;0.0;0.0;0.0;0.0;0.0,7.621289842063561e-05;0.0;0.0;0.0;7.621289842063561e-05;0.0;0.0;0.0;7.621289842063561e-05,3.999999975690116e-08;0.0;0.0;0.0;3.999999975690116e-08;0.0;0.0;0.0;3.999999975690116e-08
51,120000000,51.12,imu_link,-0.011267970350577706,0.0002841990908430153,-0.002269855070377278,-0.00024207203094641884,0.0002642507430872926,9.799981208412365,-4.615570794034541e-10,5.330484785048452e-08,-4.9891055593830005e-08,0.9999999999999973,0.0;0.0;0.0;0.0;0.0;0.0;0.0;0.0;0.0,7.621289842063561e-05;0.0;0.0;0.0;7.621289842063561e-05;0.0;0.0;0.0;7.621289842063561e-05,3.999999975690116e-08;0.0;0.0;0.0;3.999999975690116e-08;0.0;0.0;0.0;3.999999975690116e-08
51,140000000,51.14,imu_link,0.0002553025439337104,0.005956339690658935,0.0054880017103537074,0.0001604490586811291,0.00040681133632283826,9.799657919737243,-4.6155707947400234e-10,5.330484785066185e-08,-4.989105559383608e-08,0.9999999999999973,0.0;0.0;0.0;0.0;0.0;0.0;0.0;0.0;0.0,7.621289842063561e-05;0.0;0.0;0.0;7.621289842063561e-05;0.0;0.0;0.0;7.621289842063561e-05,3.999999975690116e-08;0.0;0.0;0.0;3.999999975690116e-08;0.0;0.0;0.0;3.999999975690116e-08
51,160000000,51.16,imu_link,-0.013935226465407017,0.0006240260103659277,0.008917811016264269,6.150941395811801e-05,0.00013616695359879488,9.80007928335159,-4.615570795692158e-10,5.330484785030048e-08,-4.989105559383797e-08,0.9999999999999973,0.0;0.0;0.0;0.0;0.0;0.0;0.0;0.0;0.0,7.621289842063561e-05;0.0;0.0;0.0;7.621289842063561e-05;0.0;0.0;0.0;7.621289842063561e-05,3.999999975690116e-08;0.0;0.0;0.0;3.999999975690116e-08;0.0;0.0;0.0;3.999999975690116e-08
51,180000000,51.18,imu_link,0.01549201351218943,-0.003190930074060433,-0.003908182329359027,2.3337146433435185e-06,9.895956558334975e-05,9.800107158955338,-4.6155707938054225e-10,5.330484785043817e-08,-4.9891055593839296e-08,0.9999999999999973,0.0;0.0;0.0;0.0;0.0;0.0;0.0;0.0;0.0,7.621289842063561e-05;0.0;0.0;0.0;7.621289842063561e-05;0.0;0.0;0.0;7.621289842063561e-05,3.999999975690116e-08;0.0;0.0;0.0;3.999999975690116e-08;0.0;0.0;0.0;3.999999975690116e-08
51,200000000,51.2,imu_link,0.0012014480086979466,-0.020400050147969105,-0.005576884557748997,-6.198807164703146e-05,-0.0002572994147286062,9.79951447373049,-4.6155707958486114e-10,5.330484785062588e-08,-4.9891055593841095e-08,0.9999999999999973,0.0;0.0;0.0;0.0;0.0;0.0;0.0;0.0;0.0,7.621289842063561e-05;0.0;0.0;0.0;7.621289842063561e-05;0.0;0.0;0.0;7.621289842063561e-05,3.999999975690116e-08;0.0;0.0;0.0;3.999999975690116e-08;0.0;0.0;0.0;3.999999975690116e-08
51,220000000,51.22,imu_link,-0.0008453662528220034,-0.00410818289188097,0.005161929501614029,-0.00018779222035245844,-4.349275849781158e-05,9.799780336297252,-4.615570794157689e-10,5.3304847850757583e-08,-4.989105559384459e-08,0.9999999999999973,0.0;0.0;0.0;0.0;0.0;0.0;0.0;0.0;0.0,7.621289842063561e-05;0.0;0.0;0.0;7.621289842063561e-05;0.0;0.0;0.0;7.621289842063561e-05,3.999999975690116e-08;0.0;0.0;0.0;3.999999975690116e-08;0.0;0.0;0.0;3.999999975690116e-08
51,240000000,51.24,imu_link,0.004802230449725469,-0.005685898113009145,0.004640845917269709,0.0003623633686522403,0.00032898710392104753,9.799917552729095,-4.6155707937287496e-10,5.330484785040216e-08,-4.989105559384613e-08,0.9999999999999973,0.0;0.0;0.0;0.0;0.0;0.0;0.0;0.0;0.0,7.621289842063561e-05;0.0;0.0;0.0;7.621289842063561e-05;0.0;0.0;0.0;7.621289842063561e-05,3.999999975690116e-08;0.0;0.0;0.0;3.999999975690116e-08;0.0;0.0;0.0;3.999999975690116e-08
51,260000000,51.26,imu_link,0.010123643923647532,-0.001574606269306929,-0.0017867876806024385,6.16255785486969e-05,-1.7230831933719447e-05,9.79963184622023,-4.6155707956403795e-10,5.3304847850577907e-08,-4.9891055593849e-08,0.9999999999999973,0.0;0.0;0.0;0.0;0.0;0.0;0.0;0.0;0.0,7.621289842063561e-05;0.0;0.0;0.0;7.621289842063561e-05;0.0;0.0;0.0;7.621289842063561e-05,3.999999975690116e-08;0.0;0.0;0.0;3.999999975690116e-08;0.0;0.0;0.0;3.999999975690116e-08
51,280000000,51.28,imu_link,0.008325106112529325,0.0017332008950213247,0.004505952761661602,0.0005683014931904532,-8.090020565061543e-05,9.799993944346214,-4.6155707939668127e-10,5.330484785071802e-08,-4.9891055593851955e-08,0.9999999999999973,0.0;0.0;0.0;0.0;0.0;0.0;0.0;0.0;0.0,7.621289842063561e-05;0.0;0.0;0.0;7.621289842063561e-05;0.0;0.0;0.0;7.621289842063561e-05,3.999999975690116e-08;0.0;0.0;0.0;3.999999975690116e-08;0.0;0.0;0.0;3.999999975690116e-08
51,300000000,51.3,imu_link,-0.006338285582002434,-0.006573847030375206,0.01394759321015527,0.00014329514937472945,0.0001848389444491584,9.79991564019773,-4.615570795943031e-10,5.330484785043039e-08,-4.9891055593854205e-08,0.9999999999999973,0.0;0.0;0.0;0.0;0.0;0.0;0.0;0.0;0.0,7.621289842063561e-05;0.0;0.0;0.0;7.621289842063561e-05;0.0;0.0;0.0;7.621289842063561e-05,3.999999975690116e-08;0.0;0.0;0.0;3.999999975690116e-08;0.0;0.0;0.0;3.999999975690116e-08
51,320000000,51.32,imu_link,0.010803552927422149,0.005513871728261802,-0.005058624892196192,-0.0001412120988735081,0.00023246399175324558,9.799930940201948,-4.6155707940561327e-10,5.330484785057616e-08,-4.9891055593855846e-08,0.9999999999999973,0.0;0.0;0.0;0.0;0.0;0.0;0.0;0.0;0.0,7.621289842063561e-05;0.0;0.0;0.0;7.621289842063561e-05;0.0;0.0;0.0;7.621289842063561e-05,3.999999975690116e-08;0.0;0.0;0.0;3.999999975690116e-08;0.0;0.0;0.0;3.999999975690116e-08
51,340000000,51.34,imu_link,0.007024389605205032,0.0030272111651802867,-0.008739461562291552,7.624338981435471e-05,0.00014185115834983855,9.80015853234488,-4.6155707946921715e-10,5.330484785076285e-08,-4.989105559385742e-08,0.9999999999999973,0.0;0.0;0.0;0.0;0.0;0.0;0.0;0.0;0.0,7.621289842063561e-05;0.0;0.0;0.0;7.621289842063561e-05;0.0;0.0;0.0;7.621289842063561e-05,3.999999975690116e-08;0.0;0.0;0.0;3.999999975690116e-08;0.0;0.0;0.0;3.999999975690116e-08
51,360000000,51.36,imu_link,0.027997511353227467,-0.008409977969544968,-0.008720895205905617,0.00010213593622914203,0.00014472413899965504,9.799890406131091,-4.615570794139381e-10,5.330484785088935e-08,-4.9891055593858936e-08,0.9999999999999973,0.0;0.0;0.0;0.0;0.0;0.0;0.0;0.0;0.0,7.621289842063561e-05;0.0;0.0;0.0;7.621289842063561e-05;0.0;0.0;0.0;7.621289842063561e-05,3.999999975690116e-08;0.0;0.0;0.0;3.999999975690116e-08;0.0;0.0;0.0;3.999999975690116e-08
51,380000000,51.38,imu_link,0.001034389608898848,0.002516875599449396,0.0014672874192112023,0.00011322175215642873,0.0002455039876075615,9.799680536226486,-4.615570794815621e-10,5.3304847850617036e-08,-4.989105559386216e-08,0.9999999999999973,0.0;0.0;0.0;0.0;0.0;0.0;0.0;0.0;0.0,7.621289842063561e-05;0.0;0.0;0.0;7.621289842063561e-05;0.0;0.0;0.0;7.621289842063561e-05,3.999999975690116e-08;0.0;0.0;0.0;3.999999975690116e-08;0.0;0.0;0.0;3.999999975690116e-08
51,400000000,51.4,imu_link,-0.0011285603830817532,0.007528516777094172,0.02249263301598411,0.0001704069669526007,-0.00013897586709553936,9.79989406653644,-4.6155707944104415e-10,5.330484785073769e-08,-4.989105559386422e-08,0.9999999999999973,0.0;0.0;0.0;0.0;0.0;0.0;0.0;0.0;0.0,7.621289842063561e-05;0.0;0.0;0.0;7.621289842063561e-05;0.0;0.0;0.0;7.621289842063561e-05,3.999999975690116e-08;0.0;0.0;0.0;3.999999975690116e-08;0.0;0.0;0.0;3.999999975690116e-08
51,420000000,51.42,imu_link,-0.007287835071341729,0.00028900121151388046,-0.0025612682616514898,0.00026696833367480027,7.573819968492143e-05,9.800215937187588,-4.615570794135366e-10,5.3304847850860465e-08,-4.989105559386703e-08,0.9999999999999973,0.0;0.0;0.0;0.0;0.0;0.0;0.0;0.0;0.0,7.621289842063561e-05;0.0;0.0;0.0;7.621289842063561e-05;0.0;0.0;0.0;7.621289842063561e-05,3.999999975690116e-08;0.0;0.0;0.0;3.999999975690116e-08;0.0;0.0;0.0;3.999999975690116e-08
51,440000000,51.44,imu_link,0.0004830222246837146,0.001173525396701324,-0.0025249509841036933,2.3187865692696923e-06,2.5299977527063408e-05,9.799791242870631,-4.6155707950258696e-10,5.3304847850572666e-08,-4.989105559387138e-08,0.9999999999999973,0.0;0.0;0.0;0.0;0.0;0.0;0.0;0.0;0.0,7.621289842063561e-05;0.0;0.0;0.0;7.621289842063561e-05;0.0;0.0;0.0;7.621289842063561e-05,3.999999975690116e-08;0.0;0.0;0.0;3.999999975690116e-08;0.0;0.0;0.0;3.999999975690116e-08
51,460000000,51.46,imu_link,-0.006539029762006049,-0.012921475024935864,-0.002266939332122703,-6.19111628972033e-05,0.00016865498199578082,9.799849241800286,-4.615570795708473e-10,5.330484785063715e-08,-4.9891055593873197e-08,0.9999999999999973,0.0;0.0;0.0;0.0;0.0;0.0;0.0;0.0;0.0,7.621289842063561e-05;0.0;0.0;0.0;7.621289842063561e-05;0.0;0.0;0.0;7.621289842063561e-05,3.999999975690116e-08;0.0;0.0;0.0;3.999999975690116e-08;0.0;0.0;0.0;3.999999975690116e-08
51,480000000,51.48,imu_link,0.0025639943253785804,-0.01250223608237551,0.0019091510094737766,0.00021288208238354092,0.00014247284864683465,9.799972087366411,-4.6155707952964445e-10,5.3304847850308424e-08,-4.989105559387432e-08,0.9999999999999973,0.0;0.0;0.0;0.0;0.0;0.0;0.0;0.0;0.0,7.621289842063561e-05;0.0;0.0;0.0;7.621289842063561e-05;0.0;0.0;0.0;7.621289842063561e-05,3.999999975690116e-08;0.0;0.0;0.0;3.999999975690116e-08;0.0;0.0;0.0;3.999999975690116e-08
51,500000000,51.5,imu_link,-0.013050215196930582,0.01650660014382526,-0.0008702086996761378,8.814828496315314e-05,8.242269528317057e-05,9.799689819277999,-4.61557079504234e-10,5.3304847850323724e-08,-4.989105559387706e-08,0.9999999999999973,0.0;0.0;0.0;0.0;0.0;0.0;0.0;0.0;0.0,7.621289842063561e-05;0.0;0.0;0.0;7.621289842063561e-05;0.0;0.0;0.0;7.621289842063561e-05,3.999999975690116e-08;0.0;0.0;0.0;3.999999975690116e-08;0.0;0.0;0.0;3.999999975690116e-08
51,520000000,51.52,imu_link,-0.014843064830075466,-0.005630428342527883,-0.0056441132574844245,0.0003663338239151434,-2.922746866728945e-05,9.799790807583658,-4.6155707965810524e-10,5.330484785067896e-08,-4.989105559387895e-08,0.9999999999999973,0.0;0.0;0.0;0.0;0.0;0.0;0.0;0.0;0.0,7.621289842063561e-05;0.0;0.0;0.0;7.621289842063561e-05;0.0;0.0;0.0;7.621289842063561e-05,3.999999975690116e-08;0.0;0.0;0.0;3.999999975690116e-08;0.0;0.0;0.0;3.999999975690116e-08
51,540000000,51.54,imu_link,-0.010761896020725508,-0.007649759341078012,0.000511275282586999,5.020107576374203e-06,-0.0005172412491358441,9.799677744655598,-4.6155707933280793e-10,5.330484785082312e-08,-4.989105559388019e-08,0.9999999999999973,0.0;0.0;0.0;0.0;0.0;0.0;0.0;0.0;0.0,7.621289842063561e-05;0.0;0.0;0.0;7.621289842063561e-05;0.0;0.0;0.0;7.621289842063561e-05,3.999999975690116e-08;0.0;0.0;0.0;3.999999975690116e-08;0.0;0.0;0.0;3.999999975690116e-08
