time_sec,time_nsec,timestamp,frame_id,angular_vel_x,angular_vel_y,angular_vel_z,linear_acc_x,linear_acc_y,linear_acc_z,orient_x,orient_y,orient_z,orient_w,orientation_covariance,angular_velocity_covariance,linear_acceleration_covariance
4,500000000,4.5,imu_link,-0.0008922856169312237,-0.011440023180892378,-0.003747213149367229,1.6622126449748653e-05,0.00018313404685143611,9.799914795073846,-4.6155707970790477e-10,5.33048478509333e-08,-4.9891055587171326e-08,0.9999999999999973,0.0;0.0;0.0;0.0;0.0;0.0;0.0;0.0;0.0,7.621289842063561e-05;0.0;0.0;0.0;7.621289842063561e-05;0.0;0.0;0.0;7.621289842063561e-05,3.999999975690116e-08;0.0;0.0;0.0;3.999999975690116e-08;0.0;0.0;0.0;3.999999975690116e-08
4,520000000,4.52,imu_link,0.008343574660048267,1.6607198901454703e-05,0.014968692970266864,0.0003733056081463552,-7.784539346944813e-05,9.79978893604825,-4.615570795098173e-10,5.330484785058402e-08,-4.9891055587180915e-08,0.9999999999999973,0.0;0.0;0.0;0.0;0.0;0.0;0.0;0.0;0.0,7.621289842063561e-05;0.0;0.0;0.0;7.621289842063561e-05;0.0;0.0;0.0;7.621289842063561e-05,3.999999975690116e-08;0.0;0.0;0.0;3.999999975690116e-08;0.0;0.0;0.0;3.999999975690116e-08
4,540000000,4.54,imu_link,0.012668350092438246,0.016026431936153537,0.01003773385508953,0.0002589036568406317,-6.666767310447323e-05,9.800019530561507,-4.615570794282109e-10,5.330484785057005e-08,-4.989105558719268e-08,0.9999999999999973,0.0;0.0;0.0;0.0;0.0;0.0;0.0;0.0;0.0,7.621289842063561e-05;0.0;0.0;0.0;7.621289842063561e-05;0.0;0.0;0.0;7.621289842063561e-05,3.999999975690116e-08;0.0;0.0;0.0;3.999999975690116e-08;0.0;0.0;0.0;3.999999975690116e-08
4,560000000,4.5600000000000005,imu_link,0.0022683003375911456,0.0015598772390215847,-0.007328357062510174,9.307931247337355e-05,-0.00019562795246748854,9.799845551155014,-4.615570794800752e-10,5.3304847850859545e-08,-4.9891055587205016e-08,0.9999999999999973,0.0;0.0;0.0;0.0;0.0;0.0;0.0;0.0;0.0,7.621289842063561e-05;0.0;0.0;0.0;7.621289842063561e-05;0.0;0.0;0.0;7.621289842063561e-05,3.999999975690116e-08;0.0;0.0;0.0;3.999999975690116e-08;0.0;0.0;0.0;3.999999975690116e-08
4,580000000,4.58,imu_link,0.009952584973092342,0.0008702427911242502,-0.01305728236285741,0.00014005239580079597,-0.0001675323507228361,9.800136060634978,-4.6155707945350506e-10,5.3304847850312335e-08,-4.989105558721765e-08,0.9999999999999973,0.0;0.0;0.0;0.0;0.0;0.0;0.0;0.0;0.0,7.621289842063561e-05;0.0;0.0;0.0;7.621289842063561e-05;0.0;0.0;0.0;7.621289842063561e-05,3.999999975690116e-08;0.0;0.0;0.0;3.999999975690116e-08;0.0;0.0;0.0;3.999999975690116e-08
4,600000000,4.6,imu_link,-0.008336489065164323,-0.004243012862616645,-0.0001704212611126837,0.00029490490930806544,-0.0001210459677628184,9.80024706971358,-4.615570795932313e-10,5.3304847850531293e-08,-4.9891055587229745e-08,0.9999999999999973,0.0;0.0;0.0;0.0;0.0;0.0;0.0;0.0;0.0,7.621289842063561e-05;0.0;0.0;0.0;7.621289842063561e-05;0.0;0.0;0.0;7.621289842063561e-05,3.999999975690116e-08;0.0;0.0;0.0;3.999999975690116e-08;0.0;0.0;0.0;3.999999975690116e-08
4,620000000,4.62,imu_link,0.01941388660860913,0.01154667968160439,-0.006583814824362483,0.00016779929810767743,-4.916592924923231e-05,9.800257910083479,-4.6155707963590624e-10,5.330484785071868e-08,-4.9891055587240704e-08,0.9999999999999973,0.0;0.0;0.0;0.0;0.0;0.0;0.0;0.0;0.0,7.621289842063561e-05;0.0;0.0;0.0;7.621289842063561e-05;0.0;0.0;0.0;7.621289842063561e-05,3.999999975690116e-08;0.0;0.0;0.0;3.999999975690116e-08;0.0;0.0;0.0;3.999999975690116e-08
4,640000000,4.64,imu_link,-0.0023289811570015874,0.0023915477569087045,0.011212420790185392,0.00021179862731965978,-0.00012943289727568167,9.800059120292996,-4.615570795761343e-10,5.330484785037034e-08,-4.9891055587252403e-08,0.9999999999999973,0.0;0.0;0.0;0.0;0.0;0.0;0.0;0.0;0.0,7.621289842063561e-05;0.0;0.0;0.0;7.621289842063561e-05;0.0;0.0;0.0;7.621289842063561e-05,3.999999975690116e-08;0.0;0.0;0.0;3.999999975690116e-08;0.0;0.0;0.0;3.999999975690116e-08
4,660000000,4.66,imu_link,-0.01637237854975713,-0.02001528779968889,0.004828314363571731,0.00028554686928250337,0.00020580901507808211,9.800120553548728,-4.615570793811226e-10,5.330484785037188e-08,-4.9891055587263474e-08,0.9999999999999973,0.0;0.0;0.0;0.0;0.0;0.0;0.0;0.0;0.0,7.621289842063561e-05;0.0;0.0;0.0;7.621289842063561e-05;0.0;0.0;0.0;7.621289842063561e-05,3.999999975690116e-08;0.0;0.0;0.0;3.999999975690116e-08;0.0;0.0;0.0;3.999999975690116e-08
4,680000000,4.68,imu_link,-0.0015347376023147816,-0.005626139867770595,-0.0031621659107041286,-0.00021717947532127107,0.0005096033636656452,9.80001074719034,-4.6155707941619467e-10,5.3304847850552595e-08,-4.989105558727475e-08,0.9999999999999973,0.0;0.0;0.0;0.0;0.0;0.0;0.0;0.0;0.0,7.621289842063561e-05;0.0;0.0;0.0;7.621289842063561e-05;0.0;0.0;0.0;7.621289842063561e-05,3.999999975690116e-08;0.0;0.0;0.0;3.999999975690116e-08;0.0;0.0;0.0;3.999999975690116e-08
4,700000000,4.7,imu_link,-0.005543762693301824,-0.002819194389697177,0.005489147467963644,0.00017893858986386848,0.00018851783846728947,9.800242839952809,-4.615570794685605e-10,5.330484785072837e-08,-4.989105558728721e-08,0.9999999999999973,0.0;0.0;0.0;0.0;0.0;0.0;0.0;0.0;0.0,7.621289842063561e-05;0.0;0.0;0.0;7.621289842063561e-05;0.0;0.0;0.0;7.621289842063561e-05,3.999999975690116e-08;0.0;0.0;0.0;3.999999975690116e-08;0.0;0.0;0.0;3.999999975690116e-08
4,720000000,4.72,imu_link,-0.0051516570490498,-0.0029818559677031622,0.00025700976199564106,7.072747112050047e-05,0.0003662216409048496,9.799907770816594,-4.61557079531074e-10,5.3304847850256994e-08,-4.989105558730035e-08,0.9999999999999973,0.0;0.0;0.0;0.0;0.0;0.0;0.0;0.0;0.0,7.621289842063561e-05;0.0;0.0;0.0;7.621289842063561e-05;0.0;0.0;0.0;7.621289842063561e-05,3.999999975690116e-08;0.0;0.0;0.0;3.999999975690116e-08;0.0;0.0;0.0;3.999999975690116e-08
4,740000000,4.74,imu_link,0.004874777721497726,0.011916443020680042,0.002019214454342289,3.6137380948347435e-05,9.979366900342128e-05,9.80007646257383,-4.6155707942326215e-10,5.330484785055854e-08,-4.989105558731095e-08,0.9999999999999973,0.0;0.0;0.0;0.0;0.0;0.0;0.0;0.0;0.0,7.621289842063561e-05;0.0;0.0;0.0;7.621289842063561e-05;0.0;0.0;0.0;7.621289842063561e-05,3.999999975690116e-08;0.0;0.0;0.0;3.999999975690116e-08;0.0;0.0;0.0;3.999999975690116e-08
4,760000000,4.76,imu_link,-0.00012018953242613937,-0.009564373567788541,-0.01045620033213596,0.0002847032094973601,0.0003055106287984562,9.799953736550739,-4.6155707960839484e-10,5.3304847850602126e-08,-4.989105558732286e-08,0.9999999999999973,0.0;0.0;0.0;0.0;0.0;0.0;0.0;0.0;0.0,7.621289842063561e-05;0.0;0.0;0.0;7.621289842063561e-05;0.0;0.0;0.0;7.621289842063561e-05,3.999999975690116e-08;0.0;0.0;0.0;3.999999975690116e-08;0.0;0.0;0.0;3.999999975690116e-08
4,780000000,4.78,imu_link,-0.006555149851435263,-0.019766178616262214,-0.0063957966216049815,6.396475149005618e-05,-2.7628195783952337e-05,9.800197532836794,-4.6155707955060815e-10,5.330484785025657e-08,-4.989105558733426e-08,0.9999999999999973,0.0;0.0;0.0;0.0;0.0;0.0;0.0;0.0;0.0,7.621289842063561e-05;0.0;0.0;0.0;7.621289842063561e-05;0.0;0.0;0.0;7.621289842063561e-05,3.999999975690116e-08;0.0;0.0;0.0;3.999999975690116e-08;0.0;0.0;0.0;3.999999975690116e-08
4,800000000,4.8,imu_link,-0.002901594840008138,0.007790656740192771,0.005407008414223302,5.951040653662771e-05,0.00028800965486702583,9.799914715745928,-4.6155707949178796e-10,5.33048478502487e-08,-4.989105558734606e-08,0.9999999999999973,0.0;0.0;0.0;0.0;0.0;0.0;0.0;0.0;0.0,7.621289842063561e-05;0.0;0.0;0.0;7.621289842063561e-05;0.0;0.0;0.0;7.621289842063561e-05,3.999999975690116e-08;0.0;0.0;0.0;3.999999975690116e-08;0.0;0.0;0.0;3.999999975690116e-08
4,820000000,4.82,imu_link,0.0036205260183205315,0.009281431932107627,0.00487855381896086,5.1711479181858174e-05,0.0002867960257085268,9.799900673186011,-4.615570795194869e-10,5.3304847850420034e-08,-4.989105558735757e-08,0.9999999999999973,0.0;0.0;0.0;0.0;0.0;0.0;0.0;0.0;0.0,7.621289842063561e-05;0.0;0.0;0.0;7.621289842063561e-05;0.0;0.0;0.0;7.621289842063561e-05,3.999999975690116e-08;0.0;0.0;0.0;3.999999975690116e-08;0.0;0.0;0.0;3.999999975690116e-08
4,840000000,4.84,imu_link,-0.011175453706849322,-0.005534344060926439,0.005690087707861679,1.0567630313314721e-05,-1.9617616083598673e-05,9.80007867961993,-4.6155707940969137e-10,5.330484785072374e-08,-4.9891055587367984e-08,0.9999999999999973,0.0;0.0;0.0;0.0;0.0;0.0;0.0;0.0;0.0,7.621289842063561e-05;0.0;0.0;0.0;7.621289842063561e-05;0.0;0.0;0.0;7.621289842063561e-05,3.999999975690116e-08;0.0;0.0;0.0;3.999999975690116e-08;0.0;0.0;0.0;3.999999975690116e-08
4,860000000,4.86,imu_link,0.007243076274551745,0.008143927698062832,0.0036419888351801625,0.00024189068890956565,0.00014481588698340276,9.800094022407967,-4.615570795688134e-10,5.330484785041692e-08,-4.989105558737935e-08,0.9999999999999973,0.0;0.0;0.0;0.0;0.0;0.0;0.0;0.0;0.0,7.621289842063561e-05;0.0;0.0;0.0;7.621289842063561e-05;0.0;0.0;0.0;7.621289842063561e-05,3.999999975690116e-08;0.0;0.0;0.0;3.999999975690116e-08;0.0;0.0;0.0;3.999999975690116e-08
4,880000000,4.88,imu_link,0.006771713017242623,-0.006695255796987886,0.010669164738128597,-3.582722163323326e-05,8.5704671233662e-06,9.800323702313152,-4.615570796058129e-10,5.3304847850574876e-08,-4.989105558739014e-08,0.9999999999999973,0.0;0.0;0.0;0.0;0.0;0.0;0.0;0.0;0.0,7.621289842063561e-05;0.0;0.0;0.0;7.621289842063561e-05;0.0;0.0;0.0;7.621289842063561e-05,3.999999975690116e-08;0.0;0.0;0.0;3.999999975690116e-08;0.0;0.0;0.0;3.999999975690116e-08
4,900000000,4.9,imu_link,0.008027332695906464,0.0023006934551456524,0.013666795181717548,0.00013844179065975552,1.8353036006496645e-06,9.800056557970105,-4.6155707940239843e-10,5.3304847850686744e-08,-4.9891055587402e-08,0.9999999999999973,0.0;0.0;0.0;0.0;0.0;0.0;0.0;0.0;0.0,7.621289842063561e-05;0.0;0.0;0.0;7.621289842063561e-05;0.0;0.0;0.0;7.621289842063561e-05,3.999999975690116e-08;0.0;0.0;0.0;3.999999975690116e-08;0.0;0.0;0.0;3.999999975690116e-08
4,920000000,4.92,imu_link,0.014557652804770095,0.0009067192670771893,-0.009573950777968503,0.0003185177991789046,-1.4619545021834064e-06,9.799752724995745,-4.6155707943415457e-10,5.3304847850846615e-08,-4.98910555874138e-08,0.9999999999999973,0.0;0.0;0.0;0.0;0.0;0.0;0.0;0.0;0.0,7.621289842063561e-05;0.0;0.0;0.0;7.621289842063561e-05;0.0;0.0;0.0;7.621289842063561e-05,3.999999975690116e-08;0.0;0.0;0.0;3.999999975690116e-08;0.0;0.0;0.0;3.999999975690116e-08
4,940000000,4.94,imu_link,-0.005632975915614963,-0.011768504407891737,-0.0030459914786409117,0.00013544710358831804,-5.4402079370441045e-05,9.800187316003514,-4.615570795145652e-10,5.3304847850368584e-08,-4.989105558742457e-08,0.9999999999999973,0.0;0.0;0.0;0.0;0.0;0.0;0.0;0.0;0.0,7.621289842063561e-05;0.0;0.0;0.0;7.621289842063561e-05;0.0;0.0;0.0;7.621289842063561e-05,3.999999975690116e-08;0.0;0.0;0.0;3.999999975690116e-08;0.0;0.0;0.0;3.999999975690116e-08
4,960000000,4.96,imu_link,-0.01042974162031278,0.0015391164465852517,-0.011145324265757362,0.0001757049037633533,0.000238610095205507,9.800163317465584,-4.615570796499686e-10,5.330484785070489e-08,-4.989105558743734e-08,0.9999999999999973,0.0;0.0;0.0;0.0;0.0;0.0;0.0;0.0;0.0,7.621289842063561e-05;0.0;0.0;0.0;7.621289842063561e-05;0.0;0.0;0.0;7.621289842063561e-05,3.999999975690116e-08;0.0;0.0;0.0;3.999999975690116e-08;0.0;0.0;0.0;3.999999975690116e-08
4,980000000,4.98,imu_link,0.0072305503116113995,-0.001088697952461509,0.0015420747429129142,0.00011740740695345205,3.521003665380374e-05,9.799798465396128,-4.615570794473827e-10,5.330484785070239e-08,-4.989105558744766e-08,0.9999999999999973,0.0;0.0;0.0;0.0;0.0;0.0;0.0;0.0;0.0,7.621289842063561e-05;0.0;0.0;0.0;7.621289842063561e-05;0.0;0.0;0.0;7.621289842063561e-05,3.999999975690116e-08;0.0;0.0;0.0;3.999999975690116e-08;0.0;0.0;0.0;3.999999975690116e-08
5,0,5.0,imu_link,-0.010603411060340887,-0.0022156457304204572,0.003592335904727007,0.0002611425017410181,-8.868111761169839e-05,9.800452439512974,-4.615570793849067e-10,5.330484785035388e-08,-4.9891055587460284e-08,0.9999999999999973,0.0;0.0;0.0;0.0;0.0;0.0;0.0;0.0;0.0,7.621289842063561e-05;0.0;0.0;0.0;7.621289842063561e-05;0.0;0.0;0.0;7.621289842063561e-05,3.999999975690116e-08;0.0;0.0;0.0;3.999999975690116e-08;0.0;0.0;0.0;3.999999975690116e-08
5,20000000,5.02,imu_link,-0.0022281058365128227,0.01022638420927221,0.004052251879945858,0.00039482209981298044,-9.280350133846456e-06,9.799741538626842,-4.6155707956556565e-10,5.330484785052524e-08,-4.989105558747173e-08,0.9999999999999973,0.0;0.0;0.0;0.0;0.0;0.0;0.0;0.0;0.0,7.621289842063561e-05;0.0;0.0;0.0;7.621289842063561e-05;0.0;0.0;0.0;7.621289842063561e-05,3.999999975690116e-08;0.0;0.0;0.0;3.999999975690116e-08;0.0;0.0;0.0;3.999999975690116e-08
5,40000000,5.04,imu_link,0.017591552156858977,0.0046752698129461055,0.011162444895291647,0.0004477093168330387,-7.4401083536421e-05,9.79961828366873,-4.615570796033068e-10,5.330484785069517e-08,-4.9891055587483623e-08,0.9999999999999973,0.0;0.0;0.0;0.0;0.0;0.0;0.0;0.0;0.0,7.621289842063561e-05;0.0;0.0;0.0;7.621289842063561e-05;0.0;0.0;0.0;7.621289842063561e-05,3.999999975690116e-08;0.0;0.0;0.0;3.999999975690116e-08;0.0;0.0;0.0;3.999999975690116e-08
5,60000000,5.06,imu_link,-0.006939439084148387,-0.018910837387284343,-0.005279011856372542,-0.00023305101799529022,8.292065360973456e-05,9.799821475744844,-4.61557079401642e-10,5.330484785082265e-08,-4.989105558749457e-08,0.9999999999999973,0.0;0.0;0.0;0.0;0.0;0.0;0.0;0.0;0.0,7.621289842063561e-05;0.0;0.0;0.0;7.621289842063561e-05;0.0;0.0;0.0;7.621289842063561e-05,3.999999975690116e-08;0.0;0.0;0.0;3.999999975690116e-08;0.0;0.0;0.0;3.999999975690116e-08
5,80000000,5.08,imu_link,-0.011900546461791629,0.009855791279256645,0.0025922695614354944,1.4072654542323916e-05,0.00011865757851369158,9.80011027496483,-4.615570794536894e-10,5.330484785052175e-08,-4.989105558750511e-08,0.9999999999999973,0.0;0.0;0.0;0.0;0.0;0.0;0.0;0.0;0.0,7.621289842063561e-05;0.0;0.0;0.0;7.621289842063561e-05;0.0;0.0;0.0;7.621289842063561e-05,3.999999975690116e-08;0.0;0.0;0.0;3.999999975690116e-08;0.0;0.0;0.0;3.999999975690116e-08
5,100000000,5.1,imu_link,-0.010815242995247595,-0.014379594287223971,-0.011783078933122101,0.0003336719653225772,0.0006779362754002322,9.800179517788182,-4.6155707965283403e-10,5.330484785068608e-08,-4.989105558751699e-08,0.9999999999999973,0.0;0.0;0.0;0.0;0.0;0.0;0.0;0.0;0.0,7.621289842063561e-05;0.0;0.0;0.0;7.621289842063561e-05;0.0;0.0;0.0;7.621289842063561e-05,3.999999975690116e-08;0.0;0.0;0.0;3.999999975690116e-08;0.0;0.0;0.0;3.999999975690116e-08
5,120000000,5.12,imu_link,-0.0056573873510777925,-0.021415980761929465,-0.004421618142459976,0.00018096186731479837,-7.93892662048085e-05,9.799743301616283,-4.6155707945762235e-10,5.330484785081317e-08,-4.9891055587528576e-08,0.9999999999999973,0.0;0.0;0.0;0.0;0.0;0.0;0.0;0.0;0.0,7.621289842063561e-05;0.0;0.0;0.0;7.621289842063561e-05;0.0;0.0;0.0;7.621289842063561e-05,3.999999975690116e-08;0.0;0.0;0.0;3.999999975690116e-08;0.0;0.0;0.0;3.999999975690116e-08
5,140000000,5.14,imu_link,-0.0017007600384349598,0.009621659928578536,0.021081220978418264,0.0003243866914285956,2.120827305890393e-06,9.800018752357598,-4.615570794389865e-10,5.330484785027773e-08,-4.989105558754206e-08,0.9999999999999973,0.0;0.0;0.0;0.0;0.0;0.0;0.0;0.0;0.0,7.621289842063561e-05;0.0;0.0;0.0;7.621289842063561e-05;0.0;0.0;0.0;7.621289842063561e-05,3.999999975690116e-08;0.0;0.0;0.0;3.999999975690116e-08;0.0;0.0;0.0;3.999999975690116e-08
5,160000000,5.16,imu_link,-0.004672298025322253,-0.007410448216433753,-0.01571140824362245,-1.7022946528737524e-05,7.697677826849287e-05,9.799577325707522,-4.615570794991368e-10,5.33048478504423e-08,-4.98910555875543e-08,0.9999999999999973,0.0;0.0;0.0;0.0;0.0;0.0;0.0;0.0;0.0,7.621289842063561e-05;0.0;0.0;0.0;7.621289842063561e-05;0.0;0.0;0.0;7.621289842063561e-05,3.999999975690116e-08;0.0;0.0;0.0;3.999999975690116e-08;0.0;0.0;0.0;3.999999975690116e-08
5,180000000,5.18,imu_link,0.016627115895455836,-0.004781269100543372,0.003965043509235007,0.0003229798284792785,5.955003171676735e-05,9.799838744041994,-4.615570795591952e-10,5.330484785060934e-08,-4.989105558756828e-08,0.9999999999999973,0.0;0.0;0.0;0.0;0.0;0.0;0.0;0.0;0.0,7.621289842063561e-05;0.0;0.0;0.0;7.621289842063561e-05;0.0;0.0;0.0;7.621289842063561e-05,3.999999975690116e-08;0.0;0.0;0.0;3.999999975690116e-08;0.0;0.0;0.0;3.999999975690116e-08
5,200000000,5.2,imu_link,-0.0066617589443075725,-0.010283909684050057,-0.0034164771900816386,6.760893579091399e-05,0.0001232670838773317,9.79991374355185,-4.6155707950212544e-10,5.330484785025172e-08,-4.989105558758228e-08,0.9999999999999973,0.0;0.0;0.0;0.0;0.0;0.0;0.0;0.0;0.0,7.621289842063561e-05;0.0;0.0;0.0;7.621289842063561e-05;0.0;0.0;0.0;7.621289842063561e-05,3.999999975690116e-08;0.0;0.0;0.0;3.999999975690116e-08;0.0;0.0;0.0;3.999999975690116e-08
5,220000000,5.22,imu_link,0.010518415300565534,0.001905283061795849,-0.003844566315541919,0.00011603334159530625,-9.899941201746442e-05,9.79996441361132,-4.615570795675016e-10,5.3304847850415256e-08,-4.9891055587596716e-08,0.9999999999999973,0.0;0.0;0.0;0.0;0.0;0.0;0.0;0.0;0.0,7.621289842063561e-05;0.0;0.0;0.0;7.621289842063561e-05;0.0;0.0;0.0;7.621289842063561e-05,3.999999975690116e-08;0.0;0.0;0.0;3.999999975690116e-08;0.0;0.0;0.0;3.999999975690116e-08
5,240000000,5.24,imu_link,0.013097549808961252,0.009979003999335085,0.002949332867458975,3.81355948821056e-05,0.00016396368478490515,9.79984647075946,-4.615570795355698e-10,5.330484785052294e-08,-4.9891055587612406e-08,0.9999999999999973,0.0;0.0;0.0;0.0;0.0;0.0;0.0;0.0;0.0,7.621289842063561e-05;0.0;0.0;0.0;7.621289842063561e-05;0.0;0.0;0.0;7.621289842063561e-05,3.999999975690116e-08;0.0;0.0;0.0;3.999999975690116e-08;0.0;0.0;0.0;3.999999975690116e-08
5,260000000,5.26,imu_link,-0.006948849331341534,-0.015475335593478442,0.0030196692435457396,-0.00020623151952991537,4.732210479843711e-05,9.800393173137056,-4.6155707968757246e-10,5.3304847850870775e-08,-4.98910555876267e-08,0.9999999999999973,0.0;0.0;0.0;0.0;0.0;0.0;0.0;0.0;0.0,7.621289842063561e-05;0.0;0.0;0.0;7.621289842063561e-05;0.0;0.0;0.0;7.621289842063561e-05,3.999999975690116e-08;0.0;0.0;0.0;3.999999975690116e-08;0.0;0.0;0.0;3.999999975690116e-08
5,280000000,5.28,imu_link,-0.0127030314271264,0.008402127672117758,-0.011960563481302604,-0.00012098148896604884,0.00029011486443041034,9.80018465791528,-4.615570795319323e-10,5.3304847850334616e-08,-4.989105558764138e-08,0.9999999999999973,0.0;0.0;0.0;0.0;0.0;0.0;0.0;0.0;0.0,7.621289842063561e-05;0.0;0.0;0.0;7.621289842063561e-05;0.0;0.0;0.0;7.621289842063561e-05,3.999999975690116e-08;0.0;0.0;0.0;3.999999975690116e-08;0.0;0.0;0.0;3.999999975690116e-08
5,300000000,5.3,imu_link,0.008458490289048003,-0.0046994477792398496,0.013817515648051224,-7.239516796622902e-05,3.263682571557986e-05,9.800166747405111,-4.6155707958799563e-10,5.3304847850496115e-08,-4.989105558765544e-08,0.9999999999999973,0.0;0.0;0.0;0.0;0.0;0.0;0.0;0.0;0.0,7.621289842063561e-05;0.0;0.0;0.0;7.621289842063561e-05;0.0;0.0;0.0;7.621289842063561e-05,3.999999975690116e-08;0.0;0.0;0.0;3.999999975690116e-08;0.0;0.0;0.0;3.999999975690116e-08
5,320000000,5.32,imu_link,0.0012103096887404673,0.0038244401646980912,0.018493220568716644,0.00011927419101234105,-3.829966663104036e-05,9.799924553013152,-4.615570793750756e-10,5.330484785060805e-08,-4.989105558766997e-08,0.9999999999999973,0.0;0.0;0.0;0.0;0.0;0.0;0.0;0.0;0.0,7.621289842063561e-05;0.0;0.0;0.0;7.621289842063561e-05;0.0;0.0;0.0;7.621289842063561e-05,3.999999975690116e-08;0.0;0.0;0.0;3.999999975690116e-08;0.0;0.0;0.0;3.999999975690116e-08
5,340000000,5.34,imu_link,-0.01143347693187806,-0.017274629393307643,0.0010509331996550752,0.0001394026065655134,9.257425474531905e-06,9.800280199377225,-4.6155707955892054e-10,5.330484785030287e-08,-4.989105558768393e-08,0.9999999999999973,0.0;0.0;0.0;0.0;0.0;0.0;0.0;0.0;0.0,7.621289842063561e-05;0.0;0.0;0.0;7.621289842063561e-05;0.0;0.0;0.0;7.621289842063561e-05,3.999999975690116e-08;0.0;0.0;0.0;3.999999975690116e-08;0.0;0.0;0.0;3.999999975690116e-08
5,360000000,5.36,imu_link,-0.004020167396749865,-0.002899329601371919,-0.005630086564486884,-0.00015105235538118787,-8.564851220019357e-05,9.800139518270104,-4.615570793703469e-10,5.3304847850412365e-08,-4.989105558769753e-08,0.9999999999999973,0.0;0.0;0.0;0.0;0.0;0.0;0.0;0.0;0.0,7.621289842063561e-05;0.0;0.0;0.0;7.621289842063561e-05;0.0;0.0;0.0;7.621289842063561e-05,3.999999975690116e-08;0.0;0.0;0.0;3.999999975690116e-08;0.0;0.0;0.0;3.999999975690116e-08
5,380000000,5.38,imu_link,-0.009277916969026762,-0.0013161784795869783,-0.012064521363412229,0.0002879497982930723,-3.827874702044904e-05,9.799941597609712,-4.6155707955944136e-10,5.33048478505662e-08,-4.989105558771188e-08,0.9999999999999973,0.0;0.0;0.0;0.0;0.0;0.0;0.0;0.0;0.0,7.621289842063561e-05;0.0;0.0;0.0;7.621289842063561e-05;0.0;0.0;0.0;7.621289842063561e-05,3.999999975690116e-08;0.0;0.0;0.0;3.999999975690116e-08;0.0;0.0;0.0;3.999999975690116e-08
5,400000000,5.4,imu_link,0.005994466926925039,0.0028974258689941548,-0.01129985823626352,0.00021325989349487692,-4.583697726609738e-05,9.800206051214921,-4.6155707937169535e-10,5.3304847850683455e-08,-4.989105558772724e-08,0.9999999999999973,0.0;0.0;0.0;0.0;0.0;0.0;0.0;0.0;0.0,7.621289842063561e-05;0.0;0.0;0.0;7.621289842063561e-05;0.0;0.0;0.0;7.621289842063561e-05,3.999999975690116e-08;0.0;0.0;0.0;3.999999975690116e-08;0.0;0.0;0.0;3.999999975690116e-08
5,420000000,5.42,imu_link,0.00534581373860953,0.01252166393302331,0.0008273614162952741,5.7826562532977067e-05,-0.0001169579274259589,9.800248679147362,-4.6155707956097614e-10,5.330484785038619e-08,-4.989105558774302e-08,0.9999999999999973,0.0;0.0;0.0;0.0;0.0;0.0;0.0;0.0;0.0,7.621289842063561e-05;0.0;0.0;0.0;7.621289842063561e-05;0.0;0.0;0.0;7.621289842063561e-05,3.999999975690116e-08;0.0;0.0;0.0;3.999999975690116e-08;0.0;0.0;0.0;3.999999975690116e-08
5,440000000,5.44,imu_link,0.008187154597733871,0.007421040757363136,-0.012131239933609757,7.161760142763507e-05,0.0003076436182359711,9.799862673926944,-4.615570796031084e-10,5.3304847850434665e-08,-4.989105558775765e-08,0.9999999999999973,0.0;0.0;0.0;0.0;0.0;0.0;0.0;0.0;0.0,7.621289842063561e-05;0.0;0.0;0.0;7.621289842063561e-05;0.0;0.0;0.0;7.621289842063561e-05,3.999999975690116e-08;0.0;0.0;0.0;3.999999975690116e-08;0.0;0.0;0.0;3.999999975690116e-08
5,460000000,5.46,imu_link,-0.01877492015527254,0.0003869607460318942,0.0035937828403923163,0.00023535693409269906,7.425836695579547e-05,9.800136573816513,-4.615570795405183e-10,5.330484785055132e-08,-4.989105558777526e-08,0.9999999999999973,0.0;0.0;0.0;0.0;0.0;0.0;0.0;0.0;0.0,7.621289842063561e-05;0.0;0.0;0.0;7.621289842063561e-05;0.0;0.0;0.0;7.621289842063561e-05,3.999999975690116e-08;0.0;0.0;0.0;3.999999975690116e-08;0.0;0.0;0.0;3.999999975690116e-08
5,480000000,5.48,imu_link,-0.009428853644115217,0.002140386478342165,-0.001921554390740169,-3.4008916767322135e-05,-0.00035969651731283206,9.800097270346194,-4.6155707967981434e-10,5.330484785089054e-08,-4.989105558778963e-08,0.9999999999999973,0.0;0.0;0.0;0.0;0.0;0.0;0.0;0.0;0.0,7.621289842063561e-05;0.0;0.0;0.0;7.621289842063561e-05;0.0;0.0;0.0;7.621289842063561e-05,3.999999975690116e-08;0.0;0.0;0.0;3.999999975690116e-08;0.0;0.0;0.0;3.999999975690116e-08
5,500000000,5.5,imu_link,0.004640781781232813,-0.016662010242232673,-0.0019035423384415346,0.0003862250636640179,-0.00023783162646652452,9.799964365692347,-4.6155707949298784e-10,5.330484785088983e-08,-4.9891055587804305e-08,0.9999999999999973,0.0;0.0;0.0;0.0;0.0;0.0;0.0;0.0;0.0,7.621289842063561e-05;0.0;0.0;0.0;7.621289842063561e-05;0.0;0.0;0.0;7.621289842063561e-05,3.999999975690116e-08;0.0;0.0;0.0;3.999999975690116e-08;0.0;0.0;0.0;3.999999975690116e-08
5,520000000,5.52,imu_link,-0.008822990767244352,-0.003552296473718097,0.00371092458394168,7.99567689607013e-05,6.182276203897376e-05,9.800136355838339,-4.6155707942855874e-10,5.330484785054595e-08,-4.989105558782051e-08,0.9999999999999973,0.0;0.0;0.0;0.0;0.0;0.0;0.0;0.0;0.0,7.621289842063561e-05;0.0;0.0;0.0;7.621289842063561e-05;0.0;0.0;0.0;7.621289842063561e-05,3.999999975690116e-08;0.0;0.0;0.0;3.999999975690116e-08;0.0;0.0;0.0;3.999999975690116e-08
5,540000000,5.54,imu_link,-0.002549922431950866,-0.005759588042551388,-0.0038053006747203223,0.00020995746983597146,-7.51183827585104e-06,9.799794682422375,-4.6155707960211307e-10,5.330484785058794e-08,-4.989105558783478e-08,0.9999999999999973,0.0;0.0;0.0;0.0;0.0;0.0;0.0;0.0;0.0,7.621289842063561e-05;0.0;0.0;0.0;7.621289842063561e-05;0.0;0.0;0.0;7.621289842063561e-05,3.999999975690116e-08;0.0;0.0;0.0;3.999999975690116e-08;0.0;0.0;0.0;3.999999975690116e-08
5,560000000,5.5600000000000005,imu_link,7.521535729728313e-05,0.0005814875377912806,0.004242765933171506,4.787736955896568e-05,-9.09768095605077e-05,9.799991607696022,-4.6155707949843927e-10,5.330484785089153e-08,-4.989105558784965e-08,0.9999999999999973,0.0;0.0;0.0;0.0;0.0;0.0;0.0;0.0;0.0,7.621289842063561e-05;0.0;0.0;0.0;7.621289842063561e-05;0.0;0.0;0.0;7.621289842063561e-05,3.999999975690116e-08;0.0;0.0;0.0;3.999999975690116e-08;0.0;0.0;0.0;3.999999975690116e-08
5,580000000,5.58,imu_link,0.013209593856203645,-0.0036544496325926503,-0.0080159695724414,0.00015603831847527607,0.00039274212663379933,9.799839929026898,-4.6155707942678496e-10,5.3304847850892904e-08,-4.989105558786321e-08,0.9999999999999973,0.0;0.0;0.0;0.0;0.0;0.0;0.0;0.0;0.0,7.621289842063561e-05;0.0;0.0;0.0;7.621289842063561e-05;0.0;0.0;0.0;7.621289842063561e-05,3.999999975690116e-08;0.0;0.0;0.0;3.999999975690116e-08;0.0;0.0;0.0;3.999999975690116e-08
5,600000000,5.6,imu_link,-0.011843958298309988,0.013668216661081915,0.005512185640907039,0.00036539650887019266,-0.000102935692732714,9.800193816675383,-4.615570794752793e-10,5.3304847850602735e-08,-4.98910555878783e-08,0.9999999999999973,0.0;0.0;0.0;0.0;0.0;0.0;0.0;0.0;0.0,7.621289842063561e-05;0.0;0.0;0.0;7.621289842063561e-05;0.0;0.0;0.0;7.621289842063561e-05,3.999999975690116e-08;0.0;0.0;0.0;3.999999975690116e-08;0.0;0.0;0.0;3.999999975690116e-08
5,620000000,5.62,imu_link,0.017756895582322196,-0.004832515795327541,-0.004408115106013195,4.323902014233844e-05,-8.605574509756358e-05,9.800063359178884,-4.615570795614702e-10,5.33048478505956e-08,-4.9891055587893376e-08,0.9999999999999973,0.0;0.0;0.0;0.0;0.0;0.0;0.0;0.0;0.0,7.621289842063561e-05;0.0;0.0;0.0;7.621289842063561e-05;0.0;0.0;0.0;7.621289842063561e-05,3.999999975690116e-08;0.0;0.0;0.0;3.999999975690116e-08;0.0;0.0;0.0;3.999999975690116e-08
5,640000000,5.64,imu_link,-0.011957034427907258,-0.020834279564797317,0.001637706351361519,0.0002517526321516192,0.0001308140439757501,9.79984731932642,-4.6155707950508313e-10,5.3304847850260514e-08,-4.9891055587907266e-08,0.9999999999999973,0.0;0.0;0.0;0.0;0.0;0.0;0.0;0.0;0.0,7.621289842063561e-05;0.0;0.0;0.0;7.621289842063561e-05;0.0;0.0;0.0;7.621289842063561e-05,3.999999975690116e-08;0.0;0.0;0.0;3.999999975690116e-08;0.0;0.0;0.0;3.999999975690116e-08
5,660000000,5.66,imu_link,0.013498633335936887,0.0007096722062372616,-0.004607446527802723,-3.603990037581874e-05,0.00020758746816079026,9.799532889174076,-4.6155707939974866e-10,5.330484785056819e-08,-4.989105558792088e-08,0.9999999999999973,0.0;0.0;0.0;0.0;0.0;0.0;0.0;0.0;0.0,7.621289842063561e-05;0.0;0.0;0.0;7.621289842063561e-05;0.0;0.0;0.0;7.621289842063561e-05,3.999999975690116e-08;0.0;0.0;0.0;3.999999975690116e-08;0.0;0.0;0.0;3.999999975690116e-08
5,680000000,5.68,imu_link,-0.008971326790470984,-0.005152402899592018,-0.0014899926569412357,0.0002438992289034809,0.0001046325009104575,9.79963928584016,-4.6155707969024115e-10,5.330484785080071e-08,-4.989105558793661e-08,0.9999999999999973,0.0;0.0;0.0;0.0;0.0;0.0;0.0;0.0;0.0,7.621289842063561e-05;0.0;0.0;0.0;7.621289842063561e-05;0.0;0.0;0.0;7.621289842063561e-05,3.999999975690116e-08;0.0;0.0;0.0;3.999999975690116e-08;0.0;0.0;0.0;3.999999975690116e-08
5,700000000,5.7,imu_link,-0.004753277498803031,-0.0002970828378674241,0.004473347921452883,0.00013431372703073878,0.00017147846791796796,9.799926911009521,-4.6155707938204157e-10,5.330484785030197e-08,-4.9891055587951364e-08,0.9999999999999973,0.0;0.0;0.0;0.0;0.0;0.0;0.0;0.0;0.0,7.621289842063561e-05;0.0;0.0;0.0;7.621289842063561e-05;0.0;0.0;0.0;7.621289842063561e-05,3.999999975690116e-08;0.0;0.0;0.0;3.999999975690116e-08;0.0;0.0;0.0;3.999999975690116e-08
5,720000000,5.72,imu_link,0.005428302430339253,0.005852431307916606,-0.0008463666130385225,0.0001855575744032944,-0.00010013266885213164,9.800297207495758,-4.6155707956409854e-10,5.330484785035731e-08,-4.9891055587965605e-08,0.9999999999999973,0.0;0.0;0.0;0.0;0.0;0.0;0.0;0.0;0.0,7.621289842063561e-05;0.0;0.0;0.0;7.621289842063561e-05;0.0;0.0;0.0;7.621289842063561e-05,3.999999975690116e-08;0.0;0.0;0.0;3.999999975690116e-08;0.0;0.0;0.0;3.999999975690116e-08
5,740000000,5.74,imu_link,0.000686693496011123,-0.014167984353412608,0.005371068646868042,0.00011156346991250409,-2.3770728878303306e-05,9.800244004600348,-4.6155707959727277e-10,5.3304847850553435e-08,-4.989105558797996e-08,0.9999999999999973,0.0;0.0;0.0;0.0;0.0;0.0;0.0;0.0;0.0,7.621289842063561e-05;0.0;0.0;0.0;7.621289842063561e-05;0.0;0.0;0.0;7.621289842063561e-05,3.999999975690116e-08;0.0;0.0;0.0;3.999999975690116e-08;0.0;0.0;0.0;3.999999975690116e-08
5,760000000,5.76,imu_link,0.009069257964478852,-0.005237158695315981,0.01242249657687124,0.00023677074228651738,0.0002204561048849134,9.800319003643287,-4.6155707950068765e-10,5.330484785087046e-08,-4.989105558799499e-08,0.9999999999999973,0.0;0.0;0.0;0.0;0.0;0.0;0.0;0.0;0.0,7.621289842063561e-05;0.0;0.0;0.0;7.621289842063561e-05;0.0;0.0;0.0;7.621289842063561e-05,3.999999975690116e-08;0.0;0.0;0.0;3.999999975690116e-08;0.0;0.0;0.0;3.999999975690116e-08
5,780000000,5.78,imu_link,0.004795933178799875,-0.003943743532520648,0.010201008357190613,-0.00010265094417633819,-6.751364974899062e-05,9.800219802326469,-4.615570795833228e-10,5.3304847850398256e-08,-4.989105558801056e-08,0.9999999999999973,0.0;0.0;0.0;0.0;0.0;0.0;0.0;0.0;0.0,7.621289842063561e-05;0.0;0.0;0.0;7.621289842063561e-05;0.0;0.0;0.0;7.621289842063561e-05,3.999999975690116e-08;0.0;0.0;0.0;3.999999975690116e-08;0.0;0.0;0.0;3.999999975690116e-08
5,800000000,5.8,imu_link,0.012752957686955455,0.004539758039706712,0.005887913130834188,0.0002658193284684216,-9.2688342727613e-06,9.800013088813193,-4.6155707939182365e-10,5.330484785052467e-08,-4.9891055588026525e-08,0.9999999999999973,0.0;0.0;0.0;0.0;0.0;0.0;0.0;0.0;0.0,7.621289842063561e-05;0.0;0.0;0.0;7.621289842063561e-05;0.0;0.0;0.0;7.621289842063561e-05,3.999999975690116e-08;0.0;0.0;0.0;3.999999975690116e-08;0.0;0.0;0.0;3.999999975690116e-08
5,820000000,5.82,imu_link,-0.01880023952625372,-0.0024730810208666116,-0.014633719680656243,0.00010324054025835042,0.00022089886275254245,9.800030413269862,-4.6155707943488884e-10,5.330484785070296e-08,-4.9891055588042235e-08,0.9999999999999973,0.0;0.0;0.0;0.0;0.0;0.0;0.0;0.0;0.0,7.621289842063561e-05;0.0;0.0;0.0;7.621289842063561e-05;0.0;0.0;0.0;7.621289842063561e-05,3.999999975690116e-08;0.0;0.0;0.0;3.999999975690116e-08;0.0;0.0;0.0;3.999999975690116e-08
5,840000000,5.84,imu_link,-0.016559042633868634,-0.0023223844077812266,0.0008963529906482404,-2.1598238325828994e-05,-0.0002681654029947757,9.80030089799071,-4.6155707949240385e-10,5.3304847850887636e-08,-4.98910555880572e-08,0.9999999999999973,0.0;0.0;0.0;0.0;0.0;0.0;0.0;0.0;0.0,7.621289842063561e-05;0.0;0.0;0.0;7.621289842063561e-05;0.0;0.0;0.0;7.621289842063561e-05,3.999999975690116e-08;0.0;0.0;0.0;3.999999975690116e-08;0.0;0.0;0.0;3.999999975690116e-08
5,860000000,5.86,imu_link,-0.002877159696074993,-0.021220461839243445,-0.0038449438367920605,0.00027744883072811544,-8.810176402495173e-05,9.800361392628632,-4.6155707947334985e-10,5.330484785035203e-08,-4.989105558807246e-08,0.9999999999999973,0.0;0.0;0.0;0.0;0.0;0.0;0.0;0.0;0.0,7.621289842063561e-05;0.0;0.0;0.0;7.621289842063561e-05;0.0;0.0;0.0;7.621289842063561e-05,3.999999975690116e-08;0.0;0.0;0.0;3.999999975690116e-08;0.0;0.0;0.0;3.999999975690116e-08
5,880000000,5.88,imu_link,0.0006197632041486955,0.0019259533487127802,-0.0058130792128024385,-0.00014146037749009874,-0.000271439185620104,9.800182901242305,-4.615570795171416e-10,5.330484785054294e-08,-4.989105558808743e-08,0.9999999999999973,0.0;0.0;0.0;0.0;0.0;0.0;0.0;0.0;0.0,7.621289842063561e-05;0.0;0.0;0.0;7.621289842063561e-05;0.0;0.0;0.0;7.621289842063561e-05,3.999999975690116e-08;0.0;0.0;0.0;3.999999975690116e-08;0.0;0.0;0.0;3.999999975690116e-08
5,900000000,5.9,imu_link,0.0011019126020812534,0.004005150808851935,0.0035889640738349885,-4.537347605498909e-05,0.00019779687741432466,9.799986632875349,-4.6155707956711315e-10,5.3304847850256656e-08,-4.989105558810319e-08,0.9999999999999973,0.0;0.0;0.0;0.0;0.0;0.0;0.0;0.0;0.0,7.621289842063561e-05;0.0;0.0;0.0;7.621289842063561e-05;0.0;0.0;0.0;7.621289842063561e-05,3.999999975690116e-08;0.0;0.0;0.0;3.999999975690116e-08;0.0;0.0;0.0;3.999999975690116e-08
5,920000000,5.92,imu_link,-0.0007524687886771854,-0.01086565787841411,0.012462038979055887,-0.00013707544712211707,-1.9329283031500367e-05,9.800067869343053,-4.61557079385387e-10,5.330484785039352e-08,-4.989105558811954e-08,0.9999999999999973,0.0;0.0;0.0;0.0;0.0;0.0;0.0;0.0;0.0,7.621289842063561e-05;0.0;0.0;0.0;7.621289842063561e-05;0.0;0.0;0.0;7.621289842063561e-05,3.999999975690116e-08;0.0;0.0;0.0;3.999999975690116e-08;0.0;0.0;0.0;3.999999975690116e-08
5,940000000,5.94,imu_link,0.00028053344395003956,0.0006904071967243663,0.003630072020096604,-0.000187497672404811,0.00014647002002338337,9.800158029816949,-4.6155707957583334e-10,5.330484785055454e-08,-4.9891055588134615e-08,0.9999999999999973,0.0;0.0;0.0;0.0;0.0;0.0;0.0;0.0;0.0,7.621289842063561e-05;0.0;0.0;0.0;7.621289842063561e-05;0.0;0.0;0.0;7.621289842063561e-05,3.999999975690116e-08;0.0;0.0;0.0;3.999999975690116e-08;0.0;0.0;0.0;3.999999975690116e-08
5,960000000,5.96,imu_link,-0.006653686177939088,-0.001496989957847363,0.01124825346075088,-1.5038371210394604e-05,0.00027513837314366063,9.800159251527989,-4.615570793690659e-10,5.330484785068853e-08,-4.9891055588148326e-08,0.9999999999999973,0.0;0.0;0.0;0.0;0.0;0.0;0.0;0.0;0.0,7.621289842063561e-05;0.0;0.0;0.0;7.621289842063561e-05;0.0;0.0;0.0;7.621289842063561e-05,3.999999975690116e-08;0.0;0.0;0.0;3.999999975690116e-08;0.0;0.0;0.0;3.999999975690116e-08
5,980000000,5.98,imu_link,0.0018306624635644243,-0.01586763752299237,-0.010661250548069488,0.0003586339603559351,-0.0005052672345758406,9.80004331840908,-4.6155707941690987e-10,5.330484785086839e-08,-4.989105558816317e-08,0.9999999999999973,0.0;0.0;0.0;0.0;0.0;0.0;0.0;0.0;0.0,7.621289842063561e-05;0.0;0.0;0.0;7.621289842063561e-05;0.0;0.0;0.0;7.621289842063561e-05,3.999999975690116e-08;0.0;0.0;0.0;3.999999975690116e-08;0.0;0.0;0.0;3.999999975690116e-08
6,0,6.0,imu_link,-0.005807520570781176,0.01491926174649188,0.007307798460794682,-7.194107983249747e-05,-1.5406432318547316e-05,9.799999229159793,-4.615570796066525e-10,5.330484785057431e-08,-4.989105558817834e-08,0.9999999999999973,0.0;0.0;0.0;0.0;0.0;0.0;0.0;0.0;0.0,7.621289842063561e-05;0.0;0.0;0.0;7.621289842063561e-05;0.0;0.0;0.0;7.621289842063561e-05,3.999999975690116e-08;0.0;0.0;0.0;3.999999975690116e-08;0.0;0.0;0.0;3.999999975690116e-08
6,20000000,6.02,imu_link,0.0009357178549493286,-0.003171780047631568,-0.0005576144977264493,7.881543636505375e-05,-2.8843149811343867e-05,9.800195458901435,-4.615570794108482e-10,5.330484785059497e-08,-4.9891055588192014e-08,0.9999999999999973,0.0;0.0;0.0;0.0;0.0;0.0;0.0;0.0;0.0,7.621289842063561e-05;0.0;0.0;0.0;7.621289842063561e-05;0.0;0.0;0.0;7.621289842063561e-05,3.999999975690116e-08;0.0;0.0;0.0;3.999999975690116e-08;0.0;0.0;0.0;3.999999975690116e-08
6,40000000,6.04,imu_link,-0.015542418136996083,0.021902557449065538,-0.000583638451747008,-4.697802364377343e-05,-0.00019343673399787705,9.800124626318466,-4.6155707960192556e-10,5.330484785029804e-08,-4.9891055588206824e-08,0.9999999999999973,0.0;0.0;0.0;0.0;0.0;0.0;0.0;0.0;0.0,7.621289842063561e-05;0.0;0.0;0.0;7.621289842063561e-05;0.0;0.0;0.0;7.621289842063561e-05,3.999999975690116e-08;0.0;0.0;0.0;3.999999975690116e-08;0.0;0.0;0.0;3.999999975690116e-08
6,60000000,6.06,imu_link,0.006730589302609652,-0.010905609749082595,0.02258082665375112,2.5951096099625717e-05,-0.0001768731586016595,9.799837131693783,-4.6155707954763144e-10,5.330484785042578e-08,-4.989105558822159e-08,0.9999999999999973,0.0;0.0;0.0;0.0;0.0;0.0;0.0;0.0;0.0,7.621289842063561e-05;0.0;0.0;0.0;7.621289842063561e-05;0.0;0.0;0.0;7.621289842063561e-05,3.999999975690116e-08;0.0;0.0;0.0;3.999999975690116e-08;0.0;0.0;0.0;3.999999975690116e-08
6,80000000,6.08,imu_link,-0.004929984713529353,0.00686154749231777,0.006065448543695609,0.0003298417227502047,7.871155970823072e-05,9.800054383009018,-4.61557079369512e-10,5.330484785055507e-08,-4.9891055588236874e-08,0.9999999999999973,0.0;0.0;0.0;0.0;0.0;0.0;0.0;0.0;0.0,7.621289842063561e-05;0.0;0.0;0.0;7.621289842063561e-05;0.0;0.0;0.0;7.621289842063561e-05,3.999999975690116e-08;0.0;0.0;0.0;3.999999975690116e-08;0.0;0.0;0.0;3.999999975690116e-08
6,100000000,6.1,imu_link,-0.00035717212807838416,-0.0028085687717638824,0.007480547537868889,0.00036130828080514234,0.00015211295640758148,9.800075527435167,-4.615570796789099e-10,5.3304847850791174e-08,-4.989105558825105e-08,0.9999999999999973,0.0;0.0;0.0;0.0;0.0;0.0;0.0;0.0;0.0,7.621289842063561e-05;0.0;0.0;0.0;7.621289842063561e-05;0.0;0.0;0.0;7.621289842063561e-05,3.999999975690116e-08;0.0;0.0;0.0;3.999999975690116e-08;0.0;0.0;0.0;3.999999975690116e-08
6,120000000,6.12,imu_link,-0.012234886172051773,0.008867339392110925,0.014603243251788566,0.00033830009598228395,9.636204684810462e-05,9.799933833276016,-4.615570795357622e-10,5.3304847850268806e-08,-4.98910555882654e-08,0.9999999999999973,0.0;0.0;0.0;0.0;0.0;0.0;0.0;0.0;0.0,7.621289842063561e-05;0.0;0.0;0.0;7.621289842063561e-05;0.0;0.0;0.0;7.621289842063561e-05,3.999999975690116e-08;0.0;0.0;0.0;3.999999975690116e-08;0.0;0.0;0.0;3.999999975690116e-08
6,140000000,6.14,imu_link,0.0031900221477423646,-0.008085382783048864,-0.01386321149284737,-5.771104186762447e-05,-7.42541225244633e-05,9.799879717073543,-4.615570794817455e-10,5.330484785039274e-08,-4.9891055588279874e-08,0.9999999999999973,0.0;0.0;0.0;0.0;0.0;0.0;0.0;0.0;0.0,7.621289842063561e-05;0.0;0.0;0.0;7.621289842063561e-05;0.0;0.0;0.0;7.621289842063561e-05,3.999999975690116e-08;0.0;0.0;0.0;3.999999975690116e-08;0.0;0.0;0.0;3.999999975690116e-08
6,160000000,6.16,imu_link,-0.0022901252430512936,0.023487766388641574,0.01697917229582056,7.609220689455504e-05,-4.0470598480368044e-05,9.799743026960897,-4.615570796605864e-10,5.330484785075335e-08,-4.989105558829531e-08,0.9999999999999973,0.0;0.0;0.0;0.0;0.0;0.0;0.0;0.0;0.0,7.621289842063561e-05;0.0;0.0;0.0;7.621289842063561e-05;0.0;0.0;0.0;7.621289842063561e-05,3.999999975690116e-08;0.0;0.0;0.0;3.999999975690116e-08;0.0;0.0;0.0;3.999999975690116e-08
6,180000000,6.18,imu_link,-0.0031040057043041484,-0.00029543736808442835,-0.010592140962401802,-8.811709918566638e-05,7.411825095354622e-05,9.800209933550269,-4.615570794977712e-10,5.330484785088507e-08,-4.989105558831059e-08,0.9999999999999973,0.0;0.0;0.0;0.0;0.0;0.0;0.0;0.0;0.0,7.621289842063561e-05;0.0;0.0;0.0;7.621289842063561e-05;0.0;0.0;0.0;7.621289842063561e-05,3.999999975690116e-08;0.0;0.0;0.0;3.999999975690116e-08;0.0;0.0;0.0;3.999999975690116e-08
6,200000000,6.2,imu_link,0.011746537419434213,-0.012214437235220208,0.0053885828480184665,-1.9743694145793732e-05,1.3433976405390966e-05,9.799703842804664,-4.6155707959946873e-10,5.3304847850529844e-08,-4.989105558832552e-08,0.9999999999999973,0.0;0.0;0.0;0.0;0.0;0.0;0.0;0.0;0.0,7.621289842063561e-05;0.0;0.0;0.0;7.621289842063561e-05;0.0;0.0;0.0;7.621289842063561e-05,3.999999975690116e-08;0.0;0.0;0.0;3.999999975690116e-08;0.0;0.0;0.0;3.999999975690116e-08
6,220000000,6.22,imu_link,-0.007217788816341338,0.005107504376402336,-0.0052096768106907505,-0.0001296356035182095,9.783906372714075e-05,9.799712444580107,-4.6155707940831996e-10,5.3304847850532504e-08,-4.9891055588339696e-08,0.9999999999999973,0.0;0.0;0.0;0.0;0.0;0.0;0.0;0.0;0.0,7.621289842063561e-05;0.0;0.0;0.0;7.621289842063561e-05;0.0;0.0;0.0;7.621289842063561e-05,3.999999975690116e-08;0.0;0.0;0.0;3.999999975690116e-08;0.0;0.0;0.0;3.999999975690116e-08
6,240000000,6.24,imu_link,0.010545641615287673,0.007936160861020914,0.003174652921012223,-8.763589350081782e-06,-3.11121474793918e-05,9.80009533595367,-4.615570796967352e-10,5.3304847850874176e-08,-4.989105558835532e-08,0.9999999999999973,0.0;0.0;0.0;0.0;0.0;0.0;0.0;0.0;0.0,7.621289842063561e-05;0.0;0.0;0.0;7.621289842063561e-05;0.0;0.0;0.0;7.621289842063561e-05,3.999999975690116e-08;0.0;0.0;0.0;3.999999975690116e-08;0.0;0.0;0.0;3.999999975690116e-08
6,260000000,6.26,imu_link,-0.0009759303826888161,-0.009265621551281696,0.004393988748047468,0.0002859173655410677,0.0003171206378360968,9.80006370316834,-4.615570795040091e-10,5.3304847850892394e-08,-4.9891055588368965e-08,0.9999999999999973,0.0;0.0;0.0;0.0;0.0;0.0;0.0;0.0;0.0,7.621289842063561e-05;0.0;0.0;0.0;7.621289842063561e-05;0.0;0.0;0.0;7.621289842063561e-05,3.999999975690116e-08;0.0;0.0;0.0;3.999999975690116e-08;0.0;0.0;0.0;3.999999975690116e-08
6,280000000,6.28,imu_link,-0.002486361605835302,-0.001790546479124218,-0.00194267339331086,0.00016202775020879995,0.0001365162349351587,9.800248928975039,-4.615570795846228e-10,5.3304847850436015e-08,-4.989105558838234e-08,0.9999999999999973,0.0;0.0;0.0;0.0;0.0;0.0;0.0;0.0;0.0,7.621289842063561e-05;0.0;0.0;0.0;7.621289842063561e-05;0.0;0.0;0.0;7.621289842063561e-05,3.999999975690116e-08;0.0;0.0;0.0;3.999999975690116e-08;0.0;0.0;0.0;3.999999975690116e-08
6,300000000,6.3,imu_link,0.01702527693442446,0.006430565032669712,-0.010921896012813737,0.0002062080846868124,-4.413824536986416e-05,9.800267674123097,-4.6155707964007823e-10,5.330484785073628e-08,-4.989105558839793e-08,0.9999999999999973,0.0;0.0;0.0;0.0;0.0;0.0;0.0;0.0;0.0,7.621289842063561e-05;0.0;0.0;0.0;7.621289842063561e-05;0.0;0.0;0.0;7.621289842063561e-05,3.999999975690116e-08;0.0;0.0;0.0;3.999999975690116e-08;0.0;0.0;0.0;3.999999975690116e-08
6,320000000,6.32,imu_link,-0.01443371364285414,-0.003242744303728863,-0.001539326296561794,6.22016593648571e-05,1.254680379190364e-06,9.800360617873352,-4.615570796011954e-10,5.3304847850744143e-08,-4.989105558841299e-08,0.9999999999999973,0.0;0.0;0.0;0.0;0.0;0.0;0.0;0.0;0.0,7.621289842063561e-05;0.0;0.0;0.0;7.621289842063561e-05;0.0;0.0;0.0;7.621289842063561e-05,3.999999975690116e-08;0.0;0.0;0.0;3.999999975690116e-08;0.0;0.0;0.0;3.999999975690116e-08
6,340000000,6.34,imu_link,-0.003998753037641193,-0.011207069577208356,0.0015856293490149754,-7.273428667324206e-05,1.1276835306505692e-06,9.8004659721049,-4.615570795609892e-10,5.3304847850413814e-08,-4.9891055588427635e-08,0.9999999999999973,0.0;0.0;0.0;0.0;0.0;0.0;0.0;0.0;0.0,7.621289842063561e-05;0.0;0.0;0.0;7.621289842063561e-05;0.0;0.0;0.0;7.621289842063561e-05,3.999999975690116e-08;0.0;0.0;0.0;3.999999975690116e-08;0.0;0.0;0.0;3.999999975690116e-08
6,360000000,6.36,imu_link,-0.007037679631522366,0.0018865321238698298,-0.00805231748543617,7.421703186772261e-06,-2.6993784412732743e-05,9.800037650758114,-4.615570795159477e-10,5.3304847850537e-08,-4.989105558844188e-08,0.9999999999999973,0.0;0.0;0.0;0.0;0.0;0.0;0.0;0.0;0.0,7.621289842063561e-05;0.0;0.0;0.0;7.621289842063561e-05;0.0;0.0;0.0;7.621289842063561e-05,3.999999975690116e-08;0.0;0.0;0.0;3.999999975690116e-08;0.0;0.0;0.0;3.999999975690116e-08
6,380000000,6.38,imu_link,0.010117835238152328,0.0034748454368704745,0.010073324609425904,-0.00022382010975425336,-0.00014273214399043613,9.80028229324994,-4.6155707956254535e-10,5.3304847850251925e-08,-4.9891055588457e-08,0.9999999999999973,0.0;0.0;0.0;0.0;0.0;0.0;0.0;0.0;0.0,7.621289842063561e-05;0.0;0.0;0.0;7.621289842063561e-05;0.0;0.0;0.0;7.621289842063561e-05,3.999999975690116e-08;0.0;0.0;0.0;3.999999975690116e-08;0.0;0.0;0.0;3.999999975690116e-08
6,400000000,6.4,imu_link,-0.009976262774326417,-0.0010094891131268342,0.0003479220607223426,-5.762547586701645e-05,4.6810718932624635e-05,9.800310256779479,-4.6155707937617577e-10,5.330484785038159e-08,-4.989105558847289e-08,0.9999999999999973,0.0;0.0;0.0;0.0;0.0;0.0;0.0;0.0;0.0,7.621289842063561e-05;0.0;0.0;0.0;7.621289842063561e-05;0.0;0.0;0.0;7.621289842063561e-05,3.999999975690116e-08;0.0;0.0;0.0;3.999999975690116e-08;0.0;0.0;0.0;3.999999975690116e-08
6,420000000,6.42,imu_link,-0.00040001339685857205,0.0032060913058117612,-0.00364730634510788,0.00040196838065082374,-4.387099418189906e-05,9.800146095985006,-4.61557079570725e-10,5.3304847850428915e-08,-4.989105558848878e-08,0.9999999999999973,0.0;0.0;0.0;0.0;0.0;0.0;0.0;0.0;0.0,7.621289842063561e-05;0.0;0.0;0.0;7.621289842063561e-05;0.0;0.0;0.0;7.621289842063561e-05,3.999999975690116e-08;0.0;0.0;0.0;3.999999975690116e-08;0.0;0.0;0.0;3.999999975690116e-08
6,440000000,6.44,imu_link,0.006722769843491399,-0.009658921907311135,-0.0006662795965023335,0.00013654249470395033,9.21169406845252e-05,9.80001185222463,-4.615570794868816e-10,5.330484785073978e-08,-4.9891055588504814e-08,0.9999999999999973,0.0;0.0;0.0;0.0;0.0;0.0;0.0;0.0;0.0,7.621289842063561e-05;0.0;0.0;0.0;7.621289842063561e-05;0.0;0.0;0.0;7.621289842063561e-05,3.999999975690116e-08;0.0;0.0;0.0;3.999999975690116e-08;0.0;0.0;0.0;3.999999975690116e-08
6,460000000,6.46,imu_link,5.880370544431109e-05,-0.0073865275391461465,0.00553814650112934,0.00012138995754791567,0.0003144328602998735,9.800284867213602,-4.6155707958050706e-10,5.330484785072722e-08,-4.989105558852023e-08,0.9999999999999973,0.0;0.0;0.0;0.0;0.0;0.0;0.0;0.0;0.0,7.621289842063561e-05;0.0;0.0;0.0;7.621289842063561e-05;0.0;0.0;0.0;7.621289842063561e-05,3.999999975690116e-08;0.0;0.0;0.0;3.999999975690116e-08;0.0;0.0;0.0;3.999999975690116e-08
6,480000000,6.48,imu_link,-0.005476968343958097,-0.010601470816947837,0.00036679685595798046,0.0005549414924328254,0.0002295409475356826,9.800090105738443,-4.6155707950460063e-10,5.330484785058289e-08,-4.9891055588534063e-08,0.9999999999999973,0.0;0.0;0.0;0.0;0.0;0.0;0.0;0.0;0.0,7.621289842063561e-05;0.0;0.0;0.0;7.621289842063561e-05;0.0;0.0;0.0;7.621289842063561e-05,3.999999975690116e-08;0.0;0.0;0.0;3.999999975690116e-08;0.0;0.0;0.0;3.999999975690116e-08
6,500000000,6.5,imu_link,-0.012803660873047107,0.007522543587677551,0.010157658317072524,0.0003987360107431934,0.00021552806090187993,9.799732213925642,-4.615570795880719e-10,5.330484785058285e-08,-4.9891055588550415e-08,0.9999999999999973,0.0;0.0;0.0;0.0;0.0;0.0;0.0;0.0;0.0,7.621289842063561e-05;0.0;0.0;0.0;7.621289842063561e-05;0.0;0.0;0.0;7.621289842063561e-05,3.999999975690116e-08;0.0;0.0;0.0;3.999999975690116e-08;0.0;0.0;0.0;3.999999975690116e-08
6,520000000,6.52,imu_link,-0.002019427935221451,0.0006886471456793989,0.0030794298741090025,-0.00023199440019550712,0.00028018652625730957,9.79998679680288,-4.615570794192376e-10,5.330484785070497e-08,-4.9891055588565854e-08,0.9999999999999973,0.0;0.0;0.0;0.0;0.0;0.0;0.0;0.0;0.0,7.621289842063561e-05;0.0;0.0;0.0;7.621289842063561e-05;0.0;0.0;0.0;7.621289842063561e-05,3.999999975690116e-08;0.0;0.0;0.0;3.999999975690116e-08;0.0;0.0;0.0;3.999999975690116e-08
6,540000000,6.54,imu_link,0.005181174562211984,-0.0013533932154102795,-0.0030384388995242564,0.0005564328080196895,2.7470665170726367e-05,9.800124096190657,-4.615570795939187e-10,5.33048478504022e-08,-4.989105558858026e-08,0.9999999999999973,0.0;0.0;0.0;0.0;0.0;0.0;0.0;0.0;0.0,7.621289842063561e-05;0.0;0.0;0.0;7.621289842063561e-05;0.0;0.0;0.0;7.621289842063561e-05,3.999999975690116e-08;0.0;0.0;0.0;3.999999975690116e-08;0.0;0.0;0.0;3.999999975690116e-08
6,560000000,6.5600000000000005,imu_link,0.0007892923906439668,-0.001420683019947758,-0.0020803703511341936,8.164038778560415e-05,-4.3171433248639964e-05,9.800000302649527,-4.6155707940328946e-10,5.3304847850537924e-08,-4.989105558859353e-08,0.9999999999999973,0.0;0.0;0.0;0.0;0.0;0.0;0.0;0.0;0.0,7.621289842063561e-05;0.0;0.0;0.0;7.621289842063561e-05;0.0;0.0;0.0;7.621289842063561e-05,3.999999975690116e-08;0.0;0.0;0.0;3.999999975690116e-08;0.0;0.0;0.0;3.999999975690116e-08
6,580000000,6.58,imu_link,-0.007070722085961101,-0.004412875940414887,-0.006260316728929655,-6.62020670766409e-05,0.00032553373158517035,9.800001046710754,-4.6155707946323395e-10,5.330484785071843e-08,-4.9891055588606663e-08,0.9999999999999973,0.0;0.0;0.0;0.0;0.0;0.0;0.0;0.0;0.0,7.621289842063561e-05;0.0;0.0;0.0;7.621289842063561e-05;0.0;0.0;0.0;7.621289842063561e-05,3.999999975690116e-08;0.0;0.0;0.0;3.999999975690116e-08;0.0;0.0;0.0;3.999999975690116e-08
6,600000000,6.6,imu_link,0.007200658578805677,-0.010790794440166623,-0.009656986460439788,0.00038604978683716624,-3.9812015441805025e-05,9.80019123981279,-4.6155707941209045e-10,5.330484785071578e-08,-4.989105558861991e-08,0.9999999999999973,0.0;0.0;0.0;0.0;0.0;0.0;0.0;0.0;0.0,7.621289842063561e-05;0.0;0.0;0.0;7.621289842063561e-05;0.0;0.0;0.0;7.621289842063561e-05,3.999999975690116e-08;0.0;0.0;0.0;3.999999975690116e-08;0.0;0.0;0.0;3.999999975690116e-08
6,620000000,6.62,imu_link,0.005450461094156547,-0.006330595300482461,-0.00742531521693792,6.262934758566376e-05,0.00019758939955027817,9.799954712657714,-4.6155707959766325e-10,5.3304847850422886e-08,-4.989105558863254e-08,0.9999999999999973,0.0;0.0;0.0;0.0;0.0;0.0;0.0;0.0;0.0,7.621289842063561e-05;0.0;0.0;0.0;7.621289842063561e-05;0.0;0.0;0.0;7.621289842063561e-05,3.999999975690116e-08;0.0;0.0;0.0;3.999999975690116e-08;0.0;0.0;0.0;3.999999975690116e-08
6,640000000,6.64,imu_link,-0.016838081093019805,0.0004644156654255091,-0.011897086913484286,-0.00011475589904984632,4.088583015671544e-05,9.800278677609349,-4.615570795476393e-10,5.330484785053729e-08,-4.9891055588644264e-08,0.9999999999999973,0.0;0.0;0.0;0.0;0.0;0.0;0.0;0.0;0.0,7.621289842063561e-05;0.0;0.0;0.0;7.621289842063561e-05;0.0;0.0;0.0;7.621289842063561e-05,3.999999975690116e-08;0.0;0.0;0.0;3.999999975690116e-08;0.0;0.0;0.0;3.999999975690116e-08
6,660000000,6.66,imu_link,-0.009991247266834015,-0.00819142350310722,-0.00599029624702029,0.00044171560136260606,0.00029606035643404147,9.800052495553693,-4.615570796953377e-10,5.3304847850900924e-08,-4.989105558865622e-08,0.9999999999999973,0.0;0.0;0.0;0.0;0.0;0.0;0.0;0.0;0.0,7.621289842063561e-05;0.0;0.0;0.0;7.621289842063561e-05;0.0;0.0;0.0;7.621289842063561e-05,3.999999975690116e-08;0.0;0.0;0.0;3.999999975690116e-08;0.0;0.0;0.0;3.999999975690116e-08
6,680000000,6.68,imu_link,0.01014209126590335,-0.0066879827788957425,-0.01161236344152223,0.0005956960942295591,0.00016700240782284664,9.800158166572409,-4.615570795428455e-10,5.3304847850267634e-08,-4.989105558866704e-08,0.9999999999999973,0.0;0.0;0.0;0.0;0.0;0.0;0.0;0.0;0.0,7.621289842063561e-05;0.0;0.0;0.0;7.621289842063561e-05;0.0;0.0;0.0;7.621289842063561e-05,3.999999975690116e-08;0.0;0.0;0.0;3.999999975690116e-08;0.0;0.0;0.0;3.999999975690116e-08
6,700000000,6.7,imu_link,-0.01821279246416259,0.007062277937280607,0.0076404927124356335,0.0005384272430509024,-6.791546629635108e-05,9.80004117779593,-4.615570794927862e-10,5.330484785038751e-08,-4.9891055588680084e-08,0.9999999999999973,0.0;0.0;0.0;0.0;0.0;0.0;0.0;0.0;0.0,7.621289842063561e-05;0.0;0.0;0.0;7.621289842063561e-05;0.0;0.0;0.0;7.621289842063561e-05,3.999999975690116e-08;0.0;0.0;0.0;3.999999975690116e-08;0.0;0.0;0.0;3.999999975690116e-08
6,720000000,6.72,imu_link,0.00027129723311800145,-0.007916610271526934,0.00038999678665922673,2.2483723816651535e-05,0.0003228270014330875,9.79982813638045,-4.6155707966981114e-10,5.330484785075163e-08,-4.989105558869264e-08,0.9999999999999973,0.0;0.0;0.0;0.0;0.0;0.0;0.0;0.0;0.0,7.621289842063561e-05;0.0;0.0;0.0;7.621289842063561e-05;0.0;0.0;0.0;7.621289842063561e-05,3.999999975690116e-08;0.0;0.0;0.0;3.999999975690116e-08;0.0;0.0;0.0;3.999999975690116e-08
6,740000000,6.74,imu_link,0.009874776721242715,-0.004087347819414145,0.0010408633559072684,1.3800389284847654e-05,-0.0003286907360346778,9.800070676927929,-4.615570794870469e-10,5.330484785087514e-08,-4.9891055588706435e-08,0.9999999999999973,0.0;0.0;0.0;0.0;0.0;0.0;0.0;0.0;0.0,7.621289842063561e-05;0.0;0.0;0.0;7.621289842063561e-05;0.0;0.0;0.0;7.621289842063561e-05,3.999999975690116e-08;0.0;0.0;0.0;3.999999975690116e-08;0.0;0.0;0.0;3.999999975690116e-08
6,760000000,6.76,imu_link,-0.012653206379388058,-0.005188077190386627,0.0061467213340297144,0.0002884718991344989,-0.00015325782667343707,9.800060837880157,-4.615570795789355e-10,5.330484785041151e-08,-4.989105558871716e-08,0.9999999999999973,0.0;0.0;0.0;0.0;0.0;0.0;0.0;0.0;0.0,7.621289842063561e-05;0.0;0.0;0.0;7.621289842063561e-05;0.0;0.0;0.0;7.621289842063561e-05,3.999999975690116e-08;0.0;0.0;0.0;3.999999975690116e-08;0.0;0.0;0.0;3.999999975690116e-08
6,780000000,6.78,imu_link,-0.003136284401362267,-0.008625836337725427,0.004233266752597297,0.00027502251793469013,0.0002922221700569691,9.800065390116806,-4.6155707963668007e-10,5.330484785071345e-08,-4.9891055588729404e-08,0.9999999999999973,0.0;0.0;0.0;0.0;0.0;0.0;0.0;0.0;0.0,7.621289842063561e-05;0.0;0.0;0.0;7.621289842063561e-05;0.0;0.0;0.0;7.621289842063561e-05,3.999999975690116e-08;0.0;0.0;0.0;3.999999975690116e-08;0.0;0.0;0.0;3.999999975690116e-08
6,800000000,6.8,imu_link,-0.0027050094931217704,0.007632717690531254,-0.0027502215543562442,2.931692273154272e-05,-8.134424798996167e-05,9.800253064369185,-4.6155707945949054e-10,5.330484785083007e-08,-4.989105558874223e-08,0.9999999999999973,0.0;0.0;0.0;0.0;0.0;0.0;0.0;0.0;0.0,7.621289842063561e-05;0.0;0.0;0.0;7.621289842063561e-05;0.0;0.0;0.0;7.621289842063561e-05,3.999999975690116e-08;0.0;0.0;0.0;3.999999975690116e-08;0.0;0.0;0.0;3.999999975690116e-08
6,820000000,6.82,imu_link,-0.0038487962709067374,0.0021230685375432964,-0.0028685711014063515,0.00023977829720286373,-0.00011421484547465082,9.800215506091925,-4.615570795600703e-10,5.33048478503487e-08,-4.989105558875568e-08,0.9999999999999973,0.0;0.0;0.0;0.0;0.0;0.0;0.0;0.0;0.0,7.621289842063561e-05;0.0;0.0;0.0;7.621289842063561e-05;0.0;0.0;0.0;7.621289842063561e-05,3.999999975690116e-08;0.0;0.0;0.0;3.999999975690116e-08;0.0;0.0;0.0;3.999999975690116e-08
6,840000000,6.84,imu_link,0.015354047912865836,-0.0008906359130806237,-0.003676223279514673,0.00018787246284508992,-9.073862696465463e-05,9.800381020445903,-4.615570796126803e-10,5.330484785051972e-08,-4.98910555887682e-08,0.9999999999999973,0.0;0.0;0.0;0.0;0.0;0.0;0.0;0.0;0.0,7.621289842063561e-05;0.0;0.0;0.0;7.621289842063561e-05;0.0;0.0;0.0;7.621289842063561e-05,3.999999975690116e-08;0.0;0.0;0.0;3.999999975690116e-08;0.0;0.0;0.0;3.999999975690116e-08
6,860000000,6.86,imu_link,0.005339541330325759,-0.001349861723088651,-0.004523136029679747,-0.0001318989446635969,-0.00011602405962814347,9.799764108101295,-4.6155707957643e-10,5.3304847850641156e-08,-4.989105558878084e-08,0.9999999999999973,0.0;0.0;0.0;0.0;0.0;0.0;0.0;0.0;0.0,7.621289842063561e-05;0.0;0.0;0.0;7.621289842063561e-05;0.0;0.0;0.0;7.621289842063561e-05,3.999999975690116e-08;0.0;0.0;0.0;3.999999975690116e-08;0.0;0.0;0.0;3.999999975690116e-08
6,880000000,6.88,imu_link,-0.015823091064710082,-0.00019048879647205394,-0.011643076094859156,-0.0001207878718728852,-2.4271447512922835e-05,9.799883287137302,-4.615570793866004e-10,5.3304847850294084e-08,-4.989105558879508e-08,0.9999999999999973,0.0;0.0;0.0;0.0;0.0;0.0;0.0;0.0;0.0,7.621289842063561e-05;0.0;0.0;0.0;7.621289842063561e-05;0.0;0.0;0.0;7.621289842063561e-05,3.999999975690116e-08;0.0;0.0;0.0;3.999999975690116e-08;0.0;0.0;0.0;3.999999975690116e-08
6,900000000,6.9,imu_link,0.0051548107125454325,-0.0022665592634560283,0.0017341095434744403,-5.688977511688148e-06,-7.274812535302518e-05,9.800063935209916,-4.6155707943879417e-10,5.330484785046359e-08,-4.989105558880766e-08,0.9999999999999973,0.0;0.0;0.0;0.0;0.0;0.0;0.0;0.0;0.0,7.621289842063561e-05;0.0;0.0;0.0;7.621289842063561e-05;0.0;0.0;0.0;7.621289842063561e-05,3.999999975690116e-08;0.0;0.0;0.0;3.999999975690116e-08;0.0;0.0;0.0;3.999999975690116e-08
6,920000000,6.92,imu_link,-0.006241413356998048,7.81571755663391e-05,0.02216397702659621,0.00013892059596510895,0.0002320563524792663,9.800240590507835,-4.615570793819768e-10,5.3304847850580084e-08,-4.9891055588821e-08,0.9999999999999973,0.0;0.0;0.0;0.0;0.0;0.0;0.0;0.0;0.0,7.621289842063561e-05;0.0;0.0;0.0;7.621289842063561e-05;0.0;0.0;0.0;7.621289842063561e-05,3.999999975690116e-08;0.0;0.0;0.0;3.999999975690116e-08;0.0;0.0;0.0;3.999999975690116e-08
6,940000000,6.94,imu_link,0.0004609951932700821,-0.005000062504955485,-0.010273551567744229,-0.00010593351058804715,0.0004081115513963811,9.800255520956355,-4.6155707941671486e-10,5.330484785074869e-08,-4.98910555888336e-08,0.9999999999999973,0.0;0.0;0.0;0.0;0.0;0.0;0.0;0.0;0.0,7.621289842063561e-05;0.0;0.0;0.0;7.621289842063561e-05;0.0;0.0;0.0;7.621289842063561e-05,3.999999975690116e-08;0.0;0.0;0.0;3.999999975690116e-08;0.0;0.0;0.0;3.999999975690116e-08
6,960000000,6.96,imu_link,-0.0017682435907725497,-0.005012362163729323,0.00554380329276165,3.5551846575947635e-05,0.00045730626302561885,9.799784394020628,-4.6155707949889267e-10,5.330484785026423e-08,-4.9891055588847366e-08,0.9999999999999973,0.0;0.0;0.0;0.0;0.0;0.0;0.0;0.0;0.0,7.621289842063561e-05;0.0;0.0;0.0;7.621289842063561e-05;0.0;0.0;0.0;7.621289842063561e-05,3.999999975690116e-08;0.0;0.0;0.0;3.999999975690116e-08;0.0;0.0;0.0;3.999999975690116e-08
6,980000000,6.98,imu_link,0.00873694836998577,-0.007919607449915097,-0.019546905062317616,-0.00011740973579490265,0.00034406166562428626,9.800185988268057,-4.615570795468963e-10,5.330484785044039e-08,-4.989105558886117e-08,0.9999999999999973,0.0;0.0;0.0;0.0;0.0;0.0;0.0;0.0;0.0,7.621289842063561e-05;0.0;0.0;0.0;7.621289842063561e-05;0.0;0.0;0.0;7.621289842063561e-05,3.999999975690116e-08;0.0;0.0;0.0;3.999999975690116e-08;0.0;0.0;0.0;3.999999975690116e-08
7,0,7.0,imu_link,-0.004339315199876478,0.008314229403825014,0.009317695608602707,-4.22697292661693e-05,0.00014313109096312685,9.800349702956709,-4.615570793759316e-10,5.3304847850575875e-08,-4.989105558887423e-08,0.9999999999999973,0.0;0.0;0.0;0.0;0.0;0.0;0.0;0.0;0.0,7.621289842063561e-05;0.0;0.0;0.0;7.621289842063561e-05;0.0;0.0;0.0;7.621289842063561e-05,3.999999975690116e-08;0.0;0.0;0.0;3.999999975690116e-08;0.0;0.0;0.0;3.999999975690116e-08
7,20000000,7.02,imu_link,0.006470352568537315,-0.0014742696739777623,-0.007612065027302961,0.00021131295525861246,0.0006058782025595612,9.800140605519385,-4.6155707968175614e-10,5.330484785091654e-08,-4.989105558888914e-08,0.9999999999999973,0.0;0.0;0.0;0.0;0.0;0.0;0.0;0.0;0.0,7.621289842063561e-05;0.0;0.0;0.0;7.621289842063561e-05;0.0;0.0;0.0;7.621289842063561e-05,3.999999975690116e-08;0.0;0.0;0.0;3.999999975690116e-08;0.0;0.0;0.0;3.999999975690116e-08
7,40000000,7.04,imu_link,0.0023902247480092633,-0.0040249910960435025,0.0003652153684548182,0.0004366459500819485,0.00026028309198393646,9.800554409898602,-4.615570795331121e-10,5.3304847850271155e-08,-4.989105558890193e-08,0.9999999999999973,0.0;0.0;0.0;0.0;0.0;0.0;0.0;0.0;0.0,7.621289842063561e-05;0.0;0.0;0.0;7.621289842063561e-05;0.0;0.0;0.0;7.621289842063561e-05,3.999999975690116e-08;0.0;0.0;0.0;3.999999975690116e-08;0.0;0.0;0.0;3.999999975690116e-08
7,60000000,7.06,imu_link,-0.007916959439371082,0.009564535299388138,0.007525750600737863,2.7186504155176503e-05,4.245150309825375e-05,9.800010544160932,-4.6155707945192763e-10,5.330484785058123e-08,-4.989105558891619e-08,0.9999999999999973,0.0;0.0;0.0;0.0;0.0;0.0;0.0;0.0;0.0,7.621289842063561e-05;0.0;0.0;0.0;7.621289842063561e-05;0.0;0.0;0.0;7.621289842063561e-05,3.999999975690116e-08;0.0;0.0;0.0;3.999999975690116e-08;0.0;0.0;0.0;3.999999975690116e-08
7,80000000,7.08,imu_link,-0.010033241760407966,0.0032734514478880024,0.0010218875000709159,7.221118968203744e-05,0.0003860021299563854,9.799982696647943,-4.6155707940705835e-10,5.3304847850577854e-08,-4.9891055588929654e-08,0.9999999999999973,0.0;0.0;0.0;0.0;0.0;0.0;0.0;0.0;0.0,7.621289842063561e-05;0.0;0.0;0.0;7.621289842063561e-05;0.0;0.0;0.0;7.621289842063561e-05,3.999999975690116e-08;0.0;0.0;0.0;3.999999975690116e-08;0.0;0.0;0.0;3.999999975690116e-08
7,100000000,7.1,imu_link,-0.006206392632107737,0.003476313236344609,0.023590163493864308,-7.563999036807211e-05,-0.0002843131171312972,9.80025153154363,-4.615570794604446e-10,5.330484785087075e-08,-4.989105558894483e-08,0.9999999999999973,0.0;0.0;0.0;0.0;0.0;0.0;0.0;0.0;0.0,7.621289842063561e-05;0.0;0.0;0.0;7.621289842063561e-05;0.0;0.0;0.0;7.621289842063561e-05,3.999999975690116e-08;0.0;0.0;0.0;3.999999975690116e-08;0.0;0.0;0.0;3.999999975690116e-08
7,120000000,7.12,imu_link,-0.00631300091120406,-0.00518606238623629,0.0023106631024785254,0.00026392782122890054,0.00042666597679351625,9.799994603836844,-4.6155707956650755e-10,5.330484785040524e-08,-4.989105558895889e-08,0.9999999999999973,0.0;0.0;0.0;0.0;0.0;0.0;0.0;0.0;0.0,7.621289842063561e-05;0.0;0.0;0.0;7.621289842063561e-05;0.0;0.0;0.0;7.621289842063561e-05,3.999999975690116e-08;0.0;0.0;0.0;3.999999975690116e-08;0.0;0.0;0.0;3.999999975690116e-08
7,140000000,7.14,imu_link,0.004067240360759003,-0.012381164287212648,-0.011763628494227706,0.0002930016563139666,-4.233672567826551e-05,9.800067612345618,-4.615570794896474e-10,5.330484785070895e-08,-4.989105558897387e-08,0.9999999999999973,0.0;0.0;0.0;0.0;0.0;0.0;0.0;0.0;0.0,7.621289842063561e-05;0.0;0.0;0.0;7.621289842063561e-05;0.0;0.0;0.0;7.621289842063561e-05,3.999999975690116e-08;0.0;0.0;0.0;3.999999975690116e-08;0.0;0.0;0.0;3.999999975690116e-08
7,160000000,7.16,imu_link,0.0023587827819469306,-0.013853986114721042,0.006768607672610026,-0.00011340168057558399,7.701842731755577e-05,9.800295841786932,-4.615570797014849e-10,5.3304847850874176e-08,-4.989105558898975e-08,0.9999999999999973,0.0;0.0;0.0;0.0;0.0;0.0;0.0;0.0;0.0,7.621289842063561e-05;0.0;0.0;0.0;7.621289842063561e-05;0.0;0.0;0.0;7.621289842063561e-05,3.999999975690116e-08;0.0;0.0;0.0;3.999999975690116e-08;0.0;0.0;0.0;3.999999975690116e-08
7,180000000,7.18,imu_link,-0.005622019799081051,0.0030007816364428152,-0.012657607862716875,0.0001352032727455194,0.00021324695655281826,9.800078053664578,-4.6155707944782047e-10,5.330484785028858e-08,-4.989105558900426e-08,0.9999999999999973,0.0;0.0;0.0;0.0;0.0;0.0;0.0;0.0;0.0,7.621289842063561e-05;0.0;0.0;0.0;7.621289842063561e-05;0.0;0.0;0.0;7.621289842063561e-05,3.999999975690116e-08;0.0;0.0;0.0;3.999999975690116e-08;0.0;0.0;0.0;3.999999975690116e-08
7,200000000,7.2,imu_link,0.0018821752424620253,0.007951287652396114,-0.005347070945162458,0.0002998131567470343,0.00016616927759259068,9.800515524576005,-4.6155707962122906e-10,5.330484785052686e-08,-4.9891055589016965e-08,0.9999999999999973,0.0;0.0;0.0;0.0;0.0;0.0;0.0;0.0;0.0,7.621289842063561e-05;0.0;0.0;0.0;7.621289842063561e-05;0.0;0.0;0.0;7.621289842063561e-05,3.999999975690116e-08;0.0;0.0;0.0;3.999999975690116e-08;0.0;0.0;0.0;3.999999975690116e-08
7,220000000,7.22,imu_link,0.010525203132197358,0.015763400302679944,0.004368297999244108,0.00021330243041496545,0.0001792728975845554,9.800180638487038,-4.615570795375864e-10,5.330484785071598e-08,-4.989105558903039e-08,0.9999999999999973,0.0;0.0;0.0;0.0;0.0;0.0;0.0;0.0;0.0,7.621289842063561e-05;0.0;0.0;0.0;7.621289842063561e-05;0.0;0.0;0.0;7.621289842063561e-05,3.999999975690116e-08;0.0;0.0;0.0;3.999999975690116e-08;0.0;0.0;0.0;3.999999975690116e-08
7,240000000,7.24,imu_link,0.0012108801944006712,0.012620289992722066,0.003141099065342547,-0.0001926053853018117,0.00024337614617801366,9.800289313939583,-4.6155707949079204e-10,5.33048478503581e-08,-4.989105558904444e-08,0.9999999999999973,0.0;0.0;0.0;0.0;0.0;0.0;0.0;0.0;0.0,7.621289842063561e-05;0.0;0.0;0.0;7.621289842063561e-05;0.0;0.0;0.0;7.621289842063561e-05,3.999999975690116e-08;0.0;0.0;0.0;3.999999975690116e-08;0.0;0.0;0.0;3.999999975690116e-08
7,260000000,7.26,imu_link,0.0036237454582819825,-0.0019908556123623623,-0.004680321151756624,4.378036107822192e-05,-0.00022340804262156993,9.800004185533528,-4.61557079568307e-10,5.330484785035093e-08,-4.989105558905799e-08,0.9999999999999973,0.0;0.0;0.0;0.0;0.0;0.0;0.0;0.0;0.0,7.621289842063561e-05;0.0;0.0;0.0;7.621289842063561e-05;0.0;0.0;0.0;7.621289842063561e-05,3.999999975690116e-08;0.0;0.0;0.0;3.999999975690116e-08;0.0;0.0;0.0;3.999999975690116e-08
7,280000000,7.28,imu_link,0.0013081648530272963,-0.013657514251317249,-0.0017779206808677592,0.0003270976448193045,-0.00045249706925244455,9.800568658283234,-4.615570796275171e-10,5.330484785053448e-08,-4.989105558907023e-08,0.9999999999999973,0.0;0.0;0.0;0.0;0.0;0.0;0.0;0.0;0.0,7.621289842063561e-05;0.0;0.0;0.0;7.621289842063561e-05;0.0;0.0;0.0;7.621289842063561e-05,3.999999975690116e-08;0.0;0.0;0.0;3.999999975690116e-08;0.0;0.0;0.0;3.999999975690116e-08
7,300000000,7.3,imu_link,-0.002916706555507086,0.0014591988755773913,-0.016794515167610873,6.571487202905804e-05,0.00015306442055565674,9.800060941300181,-4.615570795385443e-10,5.3304847850839514e-08,-4.989105558908411e-08,0.9999999999999973,0.0;0.0;0.0;0.0;0.0;0.0;0.0;0.0;0.0,7.621289842063561e-05;0.0;0.0;0.0;7.621289842063561e-05;0.0;0.0;0.0;7.621289842063561e-05,3.999999975690116e-08;0.0;0.0;0.0;3.999999975690116e-08;0.0;0.0;0.0;3.999999975690116e-08
7,320000000,7.32,imu_link,0.0062040350649416095,-0.0013814272684602607,0.0003480850933027301,0.00010596552302267765,9.509065340833228e-06,9.799960721817973,-4.6155707954280024e-10,5.3304847850316974e-08,-4.989105558909791e-08,0.9999999999999973,0.0;0.0;0.0;0.0;0.0;0.0;0.0;0.0;0.0,7.621289842063561e-05;0.0;0.0;0.0;7.621289842063561e-05;0.0;0.0;0.0;7.621289842063561e-05,3.999999975690116e-08;0.0;0.0;0.0;3.999999975690116e-08;0.0;0.0;0.0;3.999999975690116e-08
7,340000000,7.34,imu_link,-0.00871440840794937,-0.0032419723228483575,0.000685311055471848,-7.974381366715915e-05,0.00015003789444942083,9.800211118055447,-4.6155707947997903e-10,5.330484785043638e-08,-4.989105558911133e-08,0.9999999999999973,0.0;0.0;0.0;0.0;0.0;0.0;0.0;0.0;0.0,7.621289842063561e-05;0.0;0.0;0.0;7.621289842063561e-05;0.0;0.0;0.0;7.621289842063561e-05,3.999999975690116e-08;0.0;0.0;0.0;3.999999975690116e-08;0.0;0.0;0.0;3.999999975690116e-08
7,360000000,7.36,imu_link,0.011097491054771409,0.006945065549006057,0.004247428099052166,0.0002815378728442587,-0.00014585031197022406,9.800231284412584,-4.6155707954425773e-10,5.3304847850613317e-08,-4.9891055589125385e-08,0.9999999999999973,0.0;0.0;0.0;0.0;0.0;0.0;0.0;0.0;0.0,7.621289842063561e-05;0.0;0.0;0.0;7.621289842063561e-05;0.0;0.0;0.0;7.621289842063561e-05,3.999999975690116e-08;0.0;0.0;0.0;3.999999975690116e-08;0.0;0.0;0.0;3.999999975690116e-08
7,380000000,7.38,imu_link,0.006272173077763927,0.014929843184371176,-0.001459049036325729,0.0003674426491090966,5.53483769721651e-05,9.800008326174858,-4.6155707960281297e-10,5.330484785032912e-08,-4.989105558914132e-08,0.9999999999999973,0.0;0.0;0.0;0.0;0.0;0.0;0.0;0.0;0.0,7.621289842063561e-05;0.0;0.0;0.0;7.621289842063561e-05;0.0;0.0;0.0;7.621289842063561e-05,3.999999975690116e-08;0.0;0.0;0.0;3.999999975690116e-08;0.0;0.0;0.0;3.999999975690116e-08
7,400000000,7.4,imu_link,-0.0077796081286469814,-0.0033324342594481097,0.004101622879282064,0.00016262721705743007,9.130046370452523e-05,9.80025370135915,-4.615570795622693e-10,5.3304847850442904e-08,-4.989105558915679e-08,0.9999999999999973,0.0;0.0;0.0;0.0;0.0;0.0;0.0;0.0;0.0,7.621289842063561e-05;0.0;0.0;0.0;7.621289842063561e-05;0.0;0.0;0.0;7.621289842063561e-05,3.999999975690116e-08;0.0;0.0;0.0;3.999999975690116e-08;0.0;0.0;0.0;3.999999975690116e-08
7,420000000,7.42,imu_link,-0.0053340686646253,-0.005384363000832884,-0.009506188555535972,-7.873289783999189e-07,0.00011565905393173459,9.799968206036324,-4.6155707948048294e-10,5.330484785063032e-08,-4.9891055589172495e-08,0.9999999999999973,0.0;0.0;0.0;0.0;0.0;0.0;0.0;0.0;0.0,7.621289842063561e-05;0.0;0.0;0.0;7.621289842063561e-05;0.0;0.0;0.0;7.621289842063561e-05,3.999999975690116e-08;0.0;0.0;0.0;3.999999975690116e-08;0.0;0.0;0.0;3.999999975690116e-08
7,440000000,7.44,imu_link,-0.009488043217758722,0.014058166376336702,0.0019159517797732195,4.955220790824208e-05,0.00034666938926528057,9.799858476115213,-4.615570794177843e-10,5.3304847850747307e-08,-4.989105558918937e-08,0.9999999999999973,0.0;0.0;0.0;0.0;0.0;0.0;0.0;0.0;0.0,7.621289842063561e-05;0.0;0.0;0.0;7.621289842063561e-05;0.0;0.0;0.0;7.621289842063561e-05,3.999999975690116e-08;0.0;0.0;0.0;3.999999975690116e-08;0.0;0.0;0.0;3.999999975690116e-08
7,460000000,7.46,imu_link,0.017778393635553398,-0.008178920817901877,0.0018132608279187825,-0.0003598981749343554,0.0003751612897185723,9.800042490068348,-4.6155707960019567e-10,5.330484785032771e-08,-4.989105558920498e-08,0.9999999999999973,0.0;0.0;0.0;0.0;0.0;0.0;0.0;0.0;0.0,7.621289842063561e-05;0.0;0.0;0.0;7.621289842063561e-05;0.0;0.0;0.0;7.621289842063561e-05,3.999999975690116e-08;0.0;0.0;0.0;3.999999975690116e-08;0.0;0.0;0.0;3.999999975690116e-08
7,480000000,7.48,imu_link,-0.004754289867287753,-0.0043919606925185125,-0.007429553451285836,-3.7915313469106214e-06,3.4022101417597906e-05,9.799939606970792,-4.615570795523601e-10,5.330484785044469e-08,-4.9891055589221576e-08,0.9999999999999973,0.0;0.0;0.0;0.0;0.0;0.0;0.0;0.0;0.0,7.621289842063561e-05;0.0;0.0;0.0;7.621289842063561e-05;0.0;0.0;0.0;7.621289842063561e-05,3.999999975690116e-08;0.0;0.0;0.0;3.999999975690116e-08;0.0;0.0;0.0;3.999999975690116e-08
7,500000000,7.5,imu_link,-0.006076634678956905,-0.001258626344356815,0.010816658375607758,0.00010745965575580865,8.267736256511103e-05,9.79970903594303,-4.615570793760557e-10,5.3304847850580196e-08,-4.989105558923773e-08,0.9999999999999973,0.0;0.0;0.0;0.0;0.0;0.0;0.0;0.0;0.0,7.621289842063561e-05;0.0;0.0;0.0;7.621289842063561e-05;0.0;0.0;0.0;7.621289842063561e-05,3.999999975690116e-08;0.0;0.0;0.0;3.999999975690116e-08;0.0;0.0;0.0;3.999999975690116e-08
7,520000000,7.52,imu_link,-0.013809941064564402,0.02211931911102389,-0.01172970083584098,6.92559760421899e-05,0.00015406232893120018,9.800324716241438,-4.6155707968060564e-10,5.3304847850933455e-08,-4.9891055589255656e-08,0.9999999999999973,0.0;0.0;0.0;0.0;0.0;0.0;0.0;0.0;0.0,7.621289842063561e-05;0.0;0.0;0.0;7.621289842063561e-05;0.0;0.0;0.0;7.621289842063561e-05,3.999999975690116e-08;0.0;0.0;0.0;3.999999975690116e-08;0.0;0.0;0.0;3.999999975690116e-08
7,540000000,7.54,imu_link,-0.017461038175401986,0.0012345664944744534,-0.017902427791660087,0.0002870075715502957,-0.00011792774696315042,9.800295803262788,-4.6155707954147107e-10,5.3304847850417725e-08,-4.9891055589271604e-08,0.9999999999999973,0.0;0.0;0.0;0.0;0.0;0.0;0.0;0.0;0.0,7.621289842063561e-05;0.0;0.0;0.0;7.621289842063561e-05;0.0;0.0;0.0;7.621289842063561e-05,3.999999975690116e-08;0.0;0.0;0.0;3.999999975690116e-08;0.0;0.0;0.0;3.999999975690116e-08
7,560000000,7.5600000000000005,imu_link,0.0003287771145104961,0.006897461206060547,-0.0008426116423291457,0.00016605524146417203,8.98274328977046e-05,9.799790506708165,-4.6155707960423893e-10,5.3304847850594444e-08,-4.9891055589287155e-08,0.9999999999999973,0.0;0.0;0.0;0.0;0.0;0.0;0.0;0.0;0.0,7.621289842063561e-05;0.0;0.0;0.0;7.621289842063561e-05;0.0;0.0;0.0;7.621289842063561e-05,3.999999975690116e-08;0.0;0.0;0.0;3.999999975690116e-08;0.0;0.0;0.0;3.999999975690116e-08
7,580000000,7.58,imu_link,-0.02405486270327346,0.005874301312658179,0.0004437991605761617,4.826283638460283e-05,0.00027446418664965887,9.80013425025661,-4.615570795535736e-10,5.330484785060451e-08,-4.989105558930319e-08,0.9999999999999973,0.0;0.0;0.0;0.0;0.0;0.0;0.0;0.0;0.0,7.621289842063561e-05;0.0;0.0;0.0;7.621289842063561e-05;0.0;0.0;0.0;7.621289842063561e-05,3.999999975690116e-08;0.0;0.0;0.0;3.999999975690116e-08;0.0;0.0;0.0;3.999999975690116e-08
7,600000000,7.6,imu_link,-0.0011800569481782185,3.636317830731328e-05,0.005534021051488508,0.0003024088947984137,0.0003908737572440987,9.799769086450482,-4.615570794957147e-10,5.3304847850264895e-08,-4.9891055589320216e-08,0.9999999999999973,0.0;0.0;0.0;0.0;0.0;0.0;0.0;0.0;0.0,7.621289842063561e-05;0.0;0.0;0.0;7.621289842063561e-05;0.0;0.0;0.0;7.621289842063561e-05,3.999999975690116e-08;0.0;0.0;0.0;3.999999975690116e-08;0.0;0.0;0.0;3.999999975690116e-08
7,620000000,7.62,imu_link,-0.008788927001958114,0.003471792070192797,-0.0013504087359916248,8.320625755718321e-05,0.00024863659014590615,9.800127206198379,-4.615570794428032e-10,5.3304847850383546e-08,-4.989105558933757e-08,0.9999999999999973,0.0;0.0;0.0;0.0;0.0;0.0;0.0;0.0;0.0,7.621289842063561e-05;0.0;0.0;0.0;7.621289842063561e-05;0.0;0.0;0.0;7.621289842063561e-05,3.999999975690116e-08;0.0;0.0;0.0;3.999999975690116e-08;0.0;0.0;0.0;3.999999975690116e-08
7,640000000,7.64,imu_link,0.020283442140559684,-0.005839096374783331,-0.009851055033038736,-0.00019101922158202422,0.00023786281660269663,9.800067406850168,-4.61557079468295e-10,5.3304847850743396e-08,-4.989105558935284e-08,0.9999999999999973,0.0;0.0;0.0;0.0;0.0;0.0;0.0;0.0;0.0,7.621289842063561e-05;0.0;0.0;0.0;7.621289842063561e-05;0.0;0.0;0.0;7.621289842063561e-05,3.999999975690116e-08;0.0;0.0;0.0;3.999999975690116e-08;0.0;0.0;0.0;3.999999975690116e-08
7,660000000,7.66,imu_link,0.02381746027267189,0.007211053871869766,0.008250216945596541,0.00017879931658589535,9.807172485969868e-05,9.800013153452998,-4.615570795716459e-10,5.330484785028067e-08,-4.989105558936742e-08,0.9999999999999973,0.0;0.0;0.0;0.0;0.0;0.0;0.0;0.0;0.0,7.621289842063561e-05;0.0;0.0;0.0;7.621289842063561e-05;0.0;0.0;0.0;7.621289842063561e-05,3.999999975690116e-08;0.0;0.0;0.0;3.999999975690116e-08;0.0;0.0;0.0;3.999999975690116e-08
7,680000000,7.68,imu_link,-0.0003640711150196149,0.003683741870897732,0.010631904528466315,0.00016946980870259607,-2.6459880931955907e-05,9.800062289978486,-4.6155707962434024e-10,5.3304847850453605e-08,-4.989105558938412e-08,0.9999999999999973,0.0;0.0;0.0;0.0;0.0;0.0;0.0;0.0;0.0,7.621289842063561e-05;0.0;0.0;0.0;7.621289842063561e-05;0.0;0.0;0.0;7.621289842063561e-05,3.999999975690116e-08;0.0;0.0;0.0;3.999999975690116e-08;0.0;0.0;0.0;3.999999975690116e-08
7,700000000,7.7,imu_link,-0.0006371588079778634,-0.018967031880747512,0.0015929376251943629,0.00046557384805199803,0.00021787744853244103,9.800178665860953,-4.6155707956812577e-10,5.330484785057432e-08,-4.989105558939933e-08,0.9999999999999973,0.0;0.0;0.0;0.0;0.0;0.0;0.0;0.0;0.0,7.621289842063561e-05;0.0;0.0;0.0;7.621289842063561e-05;0.0;0.0;0.0;7.621289842063561e-05,3.999999975690116e-08;0.0;0.0;0.0;3.999999975690116e-08;0.0;0.0;0.0;3.999999975690116e-08
7,720000000,7.72,imu_link,0.0019890702937167683,-0.006980070811879912,0.005408721667104211,0.00018572112313877464,3.5180056262920116e-05,9.800318755737377,-4.615570793903043e-10,5.3304847850705994e-08,-4.989105558941602e-08,0.9999999999999973,0.0;0.0;0.0;0.0;0.0;0.0;0.0;0.0;0.0,7.621289842063561e-05;0.0;0.0;0.0;7.621289842063561e-05;0.0;0.0;0.0;7.621289842063561e-05,3.999999975690116e-08;0.0;0.0;0.0;3.999999975690116e-08;0.0;0.0;0.0;3.999999975690116e-08
7,740000000,7.74,imu_link,-0.008636381811586357,-0.007643208156044499,0.008497456620924413,0.00011843245051888714,0.00036442037512576743,9.800502956400324,-4.6155707958794166e-10,5.330484785040753e-08,-4.989105558943305e-08,0.9999999999999973,0.0;0.0;0.0;0.0;0.0;0.0;0.0;0.0;0.0,7.621289842063561e-05;0.0;0.0;0.0;7.621289842063561e-05;0.0;0.0;0.0;7.621289842063561e-05,3.999999975690116e-08;0.0;0.0;0.0;3.999999975690116e-08;0.0;0.0;0.0;3.999999975690116e-08
7,760000000,7.76,imu_link,-0.00607435520871121,-0.001113524563151812,0.002274178870517893,-5.2461953579180826e-05,2.3584676426874172e-05,9.800213710867121,-4.6155707939974794e-10,5.330484785053938e-08,-4.989105558944994e-08,0.9999999999999973,0.0;0.0;0.0;0.0;0.0;0.0;0.0;0.0;0.0,7.621289842063561e-05;0.0;0.0;0.0;7.621289842063561e-05;0.0;0.0;0.0;7.621289842063561e-05,3.999999975690116e-08;0.0;0.0;0.0;3.999999975690116e-08;0.0;0.0;0.0;3.999999975690116e-08
7,780000000,7.78,imu_link,-0.0019200732769194622,-0.00494527177297347,0.009407671498078907,-0.00025267028070330834,-0.00020936166982797453,9.799991998177976,-4.6155707945706065e-10,5.3304847850716205e-08,-4.989105558946446e-08,0.9999999999999973,0.0;0.0;0.0;0.0;0.0;0.0;0.0;0.0;0.0,7.621289842063561e-05;0.0;0.0;0.0;7.621289842063561e-05;0.0;0.0;0.0;7.621289842063561e-05,3.999999975690116e-08;0.0;0.0;0.0;3.999999975690116e-08;0.0;0.0;0.0;3.999999975690116e-08
7,800000000,7.8,imu_link,0.0001222522727436438,0.008207841141546844,0.003100870269272466,0.00021704441028674387,0.0002143296442226112,9.799835620828588,-4.61557079394411e-10,5.3304847850714014e-08,-4.9891055589481615e-08,0.9999999999999973,0.0;0.0;0.0;0.0;0.0;0.0;0.0;0.0;0.0,7.621289842063561e-05;0.0;0.0;0.0;7.621289842063561e-05;0.0;0.0;0.0;7.621289842063561e-05,3.999999975690116e-08;0.0;0.0;0.0;3.999999975690116e-08;0.0;0.0;0.0;3.999999975690116e-08
7,820000000,7.82,imu_link,0.006185139594365382,-0.003080233417020509,1.565911935816466e-05,0.0002727015480627786,-0.00020478665379148654,9.800147529299737,-4.615570794464793e-10,5.3304847850429616e-08,-4.9891055589497894e-08,0.9999999999999973,0.0;0.0;0.0;0.0;0.0;0.0;0.0;0.0;0.0,7.621289842063561e-05;0.0;0.0;0.0;7.621289842063561e-05;0.0;0.0;0.0;7.621289842063561e-05,3.999999975690116e-08;0.0;0.0;0.0;3.999999975690116e-08;0.0;0.0;0.0;3.999999975690116e-08
7,840000000,7.84,imu_link,0.013228943770271942,-0.004007404395106499,0.004975385631255189,-6.848028393104897e-06,0.00032699721526484126,9.800450187755418,-4.615570795332765e-10,5.3304847850423674e-08,-4.9891055589513604e-08,0.9999999999999973,0.0;0.0;0.0;0.0;0.0;0.0;0.0;0.0;0.0,7.621289842063561e-05;0.0;0.0;0.0;7.621289842063561e-05;0.0;0.0;0.0;7.621289842063561e-05,3.999999975690116e-08;0.0;0.0;0.0;3.999999975690116e-08;0.0;0.0;0.0;3.999999975690116e-08
7,860000000,7.86,imu_link,0.017847310581091368,-0.005228134520766365,-0.01434203099815721,4.865338785671358e-05,0.00017492478583214146,9.800380887060433,-4.6155707945810553e-10,5.3304847850728116e-08,-4.989105558952866e-08,0.9999999999999973,0.0;0.0;0.0;0.0;0.0;0.0;0.0;0.0;0.0,7.621289842063561e-05;0.0;0.0;0.0;7.621289842063561e-05;0.0;0.0;0.0;7.621289842063561e-05,3.999999975690116e-08;0.0;0.0;0.0;3.999999975690116e-08;0.0;0.0;0.0;3.999999975690116e-08
7,880000000,7.88,imu_link,-0.0031793517041455656,-0.0010251047054103627,-0.00380585540086126,8.376542662523817e-05,0.0003342337436152133,9.800211312416366,-4.615570794050633e-10,5.330484785084658e-08,-4.989105558954723e-08,0.9999999999999973,0.0;0.0;0.0;0.0;0.0;0.0;0.0;0.0;0.0,7.621289842063561e-05;0.0;0.0;0.0;7.621289842063561e-05;0.0;0.0;0.0;7.621289842063561e-05,3.999999975690116e-08;0.0;0.0;0.0;3.999999975690116e-08;0.0;0.0;0.0;3.999999975690116e-08
7,900000000,7.9,imu_link,0.0059161712146805785,-0.008056824244572958,0.0050645640947446,-5.6764929046846765e-05,-0.00011430189577333337,9.800108890307444,-4.6155707959635646e-10,5.3304847850544045e-08,-4.989105558956263e-08,0.9999999999999973,0.0;0.0;0.0;0.0;0.0;0.0;0.0;0.0;0.0,7.621289842063561e-05;0.0;0.0;0.0;7.621289842063561e-05;0.0;0.0;0.0;7.621289842063561e-05,3.999999975690116e-08;0.0;0.0;0.0;3.999999975690116e-08;0.0;0.0;0.0;3.999999975690116e-08
7,920000000,7.92,imu_link,-0.006323000137394391,0.013088417553889719,0.0013550478719477818,-0.0002371171648409922,0.0002515155732345192,9.79991806293236,-4.615570794109974e-10,5.330484785066376e-08,-4.989105558957985e-08,0.9999999999999973,0.0;0.0;0.0;0.0;0.0;0.0;0.0;0.0;0.0,7.621289842063561e-05;0.0;0.0;0.0;7.621289842063561e-05;0.0;0.0;0.0;7.621289842063561e-05,3.999999975690116e-08;0.0;0.0;0.0;3.999999975690116e-08;0.0;0.0;0.0;3.999999975690116e-08
7,940000000,7.94,imu_link,0.013008096329591066,-0.005551534927349752,0.014474608386109518,0.0001567403348469545,-0.00015842995285176485,9.80018705557614,-4.6155707946870916e-10,5.330484785084713e-08,-4.9891055589596104e-08,0.9999999999999973,0.0;0.0;0.0;0.0;0.0;0.0;0.0;0.0;0.0,7.621289842063561e-05;0.0;0.0;0.0;7.621289842063561e-05;0.0;0.0;0.0;7.621289842063561e-05,3.999999975690116e-08;0.0;0.0;0.0;3.999999975690116e-08;0.0;0.0;0.0;3.999999975690116e-08
7,960000000,7.96,imu_link,0.006386443604861084,-0.008662393426926195,0.007044081764504249,-6.026470380854621e-05,0.000297756840456743,9.800264025587975,-4.6155707945803243e-10,5.330484785031584e-08,-4.989105558961248e-08,0.9999999999999973,0.0;0.0;0.0;0.0;0.0;0.0;0.0;0.0;0.0,7.621289842063561e-05;0.0;0.0;0.0;7.621289842063561e-05;0.0;0.0;0.0;7.621289842063561e-05,3.999999975690116e-08;0.0;0.0;0.0;3.999999975690116e-08;0.0;0.0;0.0;3.999999975690116e-08
7,980000000,7.98,imu_link,-0.007478653222484196,-0.020661623255674343,-0.01504585561961661,-9.367643275836579e-05,0.00019441227001158973,9.800226995880983,-4.6155707951806196e-10,5.330484785049093e-08,-4.9891055589629515e-08,0.9999999999999973,0.0;0.0;0.0;0.0;0.0;0.0;0.0;0.0;0.0,7.621289842063561e-05;0.0;0.0;0.0;7.621289842063561e-05;0.0;0.0;0.0;7.621289842063561e-05,3.999999975690116e-08;0.0;0.0;0.0;3.999999975690116e-08;0.0;0.0;0.0;3.999999975690116e-08
8,0,8.0,imu_link,0.00024835679621077237,-0.009661241619058552,-0.011641248593194242,0.00015735395791865333,-6.900615367971302e-05,9.799847962441032,-4.6155707943199283e-10,5.330484785079556e-08,-4.989105558964533e-08,0.9999999999999973,0.0;0.0;0.0;0.0;0.0;0.0;0.0;0.0;0.0,7.621289842063561e-05;0.0;0.0;0.0;7.621289842063561e-05;0.0;0.0;0.0;7.621289842063561e-05,3.999999975690116e-08;0.0;0.0;0.0;3.999999975690116e-08;0.0;0.0;0.0;3.999999975690116e-08
8,20000000,8.02,imu_link,-0.007947045394119868,-0.01625232551034914,-0.012134129917242763,0.0005250831898106086,-0.00022823061769981678,9.800113718350726,-4.6155707953000066e-10,5.3304847850320945e-08,-4.989105558966009e-08,0.9999999999999973,0.0;0.0;0.0;0.0;0.0;0.0;0.0;0.0;0.0,7.621289842063561e-05;0.0;0.0;0.0;7.621289842063561e-05;0.0;0.0;0.0;7.621289842063561e-05,3.999999975690116e-08;0.0;0.0;0.0;3.999999975690116e-08;0.0;0.0;0.0;3.999999975690116e-08
8,40000000,8.04,imu_link,0.0009840950786588357,0.013381941861377583,0.003072574599353698,0.00029556204189707953,-9.949976037913733e-05,9.800154845233788,-4.615570794988031e-10,5.3304847850435135e-08,-4.98910555896772e-08,0.9999999999999973,0.0;0.0;0.0;0.0;0.0;0.0;0.0;0.0;0.0,7.621289842063561e-05;0.0;0.0;0.0;7.621289842063561e-05;0.0;0.0;0.0;7.621289842063561e-05,3.999999975690116e-08;0.0;0.0;0.0;3.999999975690116e-08;0.0;0.0;0.0;3.999999975690116e-08
8,60000000,8.06,imu_link,0.004995723474045585,-0.005684502403336964,-0.00606350012946484,0.00012333212990885988,0.00016155310661725635,9.800215147759893,-4.615570795618231e-10,5.3304847850606865e-08,-4.989105558969282e-08,0.9999999999999973,0.0;0.0;0.0;0.0;0.0;0.0;0.0;0.0;0.0,7.621289842063561e-05;0.0;0.0;0.0;7.621289842063561e-05;0.0;0.0;0.0;7.621289842063561e-05,3.999999975690116e-08;0.0;0.0;0.0;3.999999975690116e-08;0.0;0.0;0.0;3.999999975690116e-08
8,80000000,8.08,imu_link,-0.004556739003845762,0.01516300431045949,8.413503739133046e-05,3.206431417624746e-05,0.00032320036643096006,9.800206985604483,-4.615570794740906e-10,5.330484785089815e-08,-4.9891055589706695e-08,0.9999999999999973,0.0;0.0;0.0;0.0;0.0;0.0;0.0;0.0;0.0,7.621289842063561e-05;0.0;0.0;0.0;7.621289842063561e-05;0.0;0.0;0.0;7.621289842063561e-05,3.999999975690116e-08;0.0;0.0;0.0;3.999999975690116e-08;0.0;0.0;0.0;3.999999975690116e-08
8,100000000,8.1,imu_link,-0.006578002649830407,-0.00835089174474594,-0.005542103730275611,4.080785100693752e-05,4.4874285021043176e-05,9.799879806621975,-4.615570795834456e-10,5.330484785043385e-08,-4.9891055589721054e-08,0.9999999999999973,0.0;0.0;0.0;0.0;0.0;0.0;0.0;0.0;0.0,7.621289842063561e-05;0.0;0.0;0.0;7.621289842063561e-05;0.0;0.0;0.0;7.621289842063561e-05,3.999999975690116e-08;0.0;0.0;0.0;3.999999975690116e-08;0.0;0.0;0.0;3.999999975690116e-08
8,120000000,8.12,imu_link,0.0054847661857929724,0.0013449313120236879,-0.010784281308809296,-5.563842276083881e-07,-4.767100862475449e-05,9.800276743257841,-4.615570796379346e-10,5.330484785061583e-08,-4.989105558973601e-08,0.9999999999999973,0.0;0.0;0.0;0.0;0.0;0.0;0.0;0.0;0.0,7.621289842063561e-05;0.0;0.0;0.0;7.621289842063561e-05;0.0;0.0;0.0;7.621289842063561e-05,3.999999975690116e-08;0.0;0.0;0.0;3.999999975690116e-08;0.0;0.0;0.0;3.999999975690116e-08
8,140000000,8.14,imu_link,-0.005006823147002494,-0.005680645540278753,-0.0072779717646525004,1.4650715109750092e-05,0.00035534035764243574,9.800280138481455,-4.615570794407797e-10,5.330484785074823e-08,-4.989105558975027e-08,0.9999999999999973,0.0;0.0;0.0;0.0;0.0;0.0;0.0;0.0;0.0,7.621289842063561e-05;0.0;0.0;0.0;7.621289842063561e-05;0.0;0.0;0.0;7.621289842063561e-05,3.999999975690116e-08;0.0;0.0;0.0;3.999999975690116e-08;0.0;0.0;0.0;3.999999975690116e-08
8,160000000,8.16,imu_link,-0.011723412566753152,0.008267115778340082,0.001885929933077231,-0.00013823836245392728,-2.562239203863935e-05,9.800136088689717,-4.615570793924782e-10,5.3304847850289406e-08,-4.989105558976515e-08,0.9999999999999973,0.0;0.0;0.0;0.0;0.0;0.0;0.0;0.0;0.0,7.621289842063561e-05;0.0;0.0;0.0;7.621289842063561e-05;0.0;0.0;0.0;7.621289842063561e-05,3.999999975690116e-08;0.0;0.0;0.0;3.999999975690116e-08;0.0;0.0;0.0;3.999999975690116e-08
8,180000000,8.18,imu_link,-0.0007811448036012886,-0.0050393388374229044,-0.008536702721701157,0.00028356480405119627,6.809178899754913e-05,9.800148746908308,-4.615570795858708e-10,5.330484785046491e-08,-4.9891055589780155e-08,0.9999999999999973,0.0;0.0;0.0;0.0;0.0;0.0;0.0;0.0;0.0,7.621289842063561e-05;0.0;0.0;0.0;7.621289842063561e-05;0.0;0.0;0.0;7.621289842063561e-05,3.999999975690116e-08;0.0;0.0;0.0;3.999999975690116e-08;0.0;0.0;0.0;3.999999975690116e-08
8,200000000,8.2,imu_link,0.007706062294319149,-0.001178856857556378,0.0005708786841397179,0.00018964899558222392,0.00029000624796228253,9.800165810274176,-4.615570795380684e-10,5.330484785058564e-08,-4.989105558979324e-08,0.9999999999999973,0.0;0.0;0.0;0.0;0.0;0.0;0.0;0.0;0.0,7.621289842063561e-05;0.0;0.0;0.0;7.621289842063561e-05;0.0;0.0;0.0;7.621289842063561e-05,3.999999975690116e-08;0.0;0.0;0.0;3.999999975690116e-08;0.0;0.0;0.0;3.999999975690116e-08
8,220000000,8.22,imu_link,-0.00036135707380295065,0.0010403286910058319,-0.013647634344055005,-4.878380292468668e-05,0.0001328252278777438,9.800240751425514,-4.6155707959078127e-10,5.330484785030095e-08,-4.9891055589807683e-08,0.9999999999999973,0.0;0.0;0.0;0.0;0.0;0.0;0.0;0.0;0.0,7.621289842063561e-05;0.0;0.0;0.0;7.621289842063561e-05;0.0;0.0;0.0;7.621289842063561e-05,3.999999975690116e-08;0.0;0.0;0.0;3.999999975690116e-08;0.0;0.0;0.0;3.999999975690116e-08
8,240000000,8.24,imu_link,-0.011427690604263303,-0.003050225099510586,-0.0019765682902379853,0.00042855465041562256,-1.8850321608328928e-05,9.800093063972426,-4.61557079400469e-10,5.3304847850425963e-08,-4.989105558982192e-08,0.9999999999999973,0.0;0.0;0.0;0.0;0.0;0.0;0.0;0.0;0.0,7.621289842063561e-05;0.0;0.0;0.0;7.621289842063561e-05;0.0;0.0;0.0;7.621289842063561e-05,3.999999975690116e-08;0.0;0.0;0.0;3.999999975690116e-08;0.0;0.0;0.0;3.999999975690116e-08
8,260000000,8.26,imu_link,0.007176404888293168,-0.0019181643803072293,0.0006838553271127976,0.0005470372631103597,8.727596133387688e-05,9.799923986223167,-4.615570795966821e-10,5.330484785059402e-08,-4.9891055589837945e-08,0.9999999999999973,0.0;0.0;0.0;0.0;0.0;0.0;0.0;0.0;0.0,7.621289842063561e-05;0.0;0.0;0.0;7.621289842063561e-05;0.0;0.0;0.0;7.621289842063561e-05,3.999999975690116e-08;0.0;0.0;0.0;3.999999975690116e-08;0.0;0.0;0.0;3.999999975690116e-08
8,280000000,8.28,imu_link,0.0001492437740398917,0.002368949859962564,0.0002879462956547509,0.0001332366542975737,7.442042310305907e-05,9.800164022982054,-4.615570794001179e-10,5.330484785073093e-08,-4.989105558985325e-08,0.9999999999999973,0.0;0.0;0.0;0.0;0.0;0.0;0.0;0.0;0.0,7.621289842063561e-05;0.0;0.0;0.0;7.621289842063561e-05;0.0;0.0;0.0;7.621289842063561e-05,3.999999975690116e-08;0.0;0.0;0.0;3.999999975690116e-08;0.0;0.0;0.0;3.999999975690116e-08
8,300000000,8.3,imu_link,0.004953700740840244,0.0026046348446384024,-0.01591399613298019,0.0004217251573832281,0.00011667948884824006,9.799986580945736,-4.6155707960415383e-10,5.330484785043489e-08,-4.9891055589867664e-08,0.9999999999999973,0.0;0.0;0.0;0.0;0.0;0.0;0.0;0.0;0.0,7.621289842063561e-05;0.0;0.0;0.0;7.621289842063561e-05;0.0;0.0;0.0;7.621289842063561e-05,3.999999975690116e-08;0.0;0.0;0.0;3.999999975690116e-08;0.0;0.0;0.0;3.999999975690116e-08
8,320000000,8.32,imu_link,0.0006182060190784666,-9.026742401162179e-05,-0.002765826370484187,-3.7656660348818466e-05,-0.00019233767088333939,9.799946167409264,-4.615570796593254e-10,5.33048478506034e-08,-4.989105558988221e-08,0.9999999999999973,0.0;0.0;0.0;0.0;0.0;0.0;0.0;0.0;0.0,7.621289842063561e-05;0.0;0.0;0.0;7.621289842063561e-05;0.0;0.0;0.0;7.621289842063561e-05,3.999999975690116e-08;0.0;0.0;0.0;3.999999975690116e-08;0.0;0.0;0.0;3.999999975690116e-08
8,340000000,8.34,imu_link,0.0037218608950275486,-0.008309541594193547,0.00873251514897465,6.369654459686447e-05,0.00019345314468761687,9.800452021092019,-4.6155707948667076e-10,5.33048478506159e-08,-4.9891055589895934e-08,0.9999999999999973,0.0;0.0;0.0;0.0;0.0;0.0;0.0;0.0;0.0,7.621289842063561e-05;0.0;0.0;0.0;7.621289842063561e-05;0.0;0.0;0.0;7.621289842063561e-05,3.999999975690116e-08;0.0;0.0;0.0;3.999999975690116e-08;0.0;0.0;0.0;3.999999975690116e-08
8,360000000,8.36,imu_link,-0.0011377835151991627,-0.0033843682823620617,-0.005616259264108869,-0.00018642528346389054,-0.00021416487458028306,9.80002453159584,-4.615570795665705e-10,5.330484785031472e-08,-4.9891055589910684e-08,0.9999999999999973,0.0;0.0;0.0;0.0;0.0;0.0;0.0;0.0;0.0,7.621289842063561e-05;0.0;0.0;0.0;7.621289842063561e-05;0.0;0.0;0.0;7.621289842063561e-05,3.999999975690116e-08;0.0;0.0;0.0;3.999999975690116e-08;0.0;0.0;0.0;3.999999975690116e-08
8,380000000,8.38,imu_link,0.0087711352739062,0.00602266689303913,-0.007338678085048519,0.00024109319912340397,-0.0001718259186776721,9.80052673292106,-4.6155707939558427e-10,5.3304847850438384e-08,-4.9891055589925884e-08,0.9999999999999973,0.0;0.0;0.0;0.0;0.0;0.0;0.0;0.0;0.0,7.621289842063561e-05;0.0;0.0;0.0;7.621289842063561e-05;0.0;0.0;0.0;7.621289842063561e-05,3.999999975690116e-08;0.0;0.0;0.0;3.999999975690116e-08;0.0;0.0;0.0;3.999999975690116e-08
8,400000000,8.4,imu_link,0.0018874433125455256,0.0013850412779788507,-0.007126697298777354,6.705421448282116e-05,0.00017163549463596693,9.800131258790527,-4.615570796072635e-10,5.330484785060573e-08,-4.9891055589939404e-08,0.9999999999999973,0.0;0.0;0.0;0.0;0.0;0.0;0.0;0.0;0.0,7.621289842063561e-05;0.0;0.0;0.0;7.621289842063561e-05;0.0;0.0;0.0;7.621289842063561e-05,3.999999975690116e-08;0.0;0.0;0.0;3.999999975690116e-08;0.0;0.0;0.0;3.999999975690116e-08
8,420000000,8.42,imu_link,-0.016991239625460355,0.00519123012869438,-0.012826122389909435,0.00045087407091143436,0.00029914863831985195,9.800147172470089,-4.6155707956754943e-10,5.3304847850719864e-08,-4.989105558995386e-08,0.9999999999999973,0.0;0.0;0.0;0.0;0.0;0.0;0.0;0.0;0.0,7.621289842063561e-05;0.0;0.0;0.0;7.621289842063561e-05;0.0;0.0;0.0;7.621289842063561e-05,3.999999975690116e-08;0.0;0.0;0.0;3.999999975690116e-08;0.0;0.0;0.0;3.999999975690116e-08
8,440000000,8.44,imu_link,-0.0023947246440246626,0.004758613322607099,-0.004165285151806206,-0.00022917163743614783,-0.00045347746486291637,9.799835481403315,-4.615570793854523e-10,5.3304847850850545e-08,-4.989105558996912e-08,0.9999999999999973,0.0;0.0;0.0;0.0;0.0;0.0;0.0;0.0;0.0,7.621289842063561e-05;0.0;0.0;0.0;7.621289842063561e-05;0.0;0.0;0.0;7.621289842063561e-05,3.999999975690116e-08;0.0;0.0;0.0;3.999999975690116e-08;0.0;0.0;0.0;3.999999975690116e-08
8,460000000,8.46,imu_link,-0.008807677965928577,0.019894897457823923,0.013733707480738893,0.00032374000222653893,0.0006167005909163837,9.800197191080482,-4.6155707943905747e-10,5.3304847850561925e-08,-4.989105558998421e-08,0.9999999999999973,0.0;0.0;0.0;0.0;0.0;0.0;0.0;0.0;0.0,7.621289842063561e-05;0.0;0.0;0.0;7.621289842063561e-05;0.0;0.0;0.0;7.621289842063561e-05,3.999999975690116e-08;0.0;0.0;0.0;3.999999975690116e-08;0.0;0.0;0.0;3.999999975690116e-08
8,480000000,8.48,imu_link,0.002059701989747492,0.01801021240440604,-0.0029064559683943053,0.00048512598650304786,0.00016284225481604054,9.800306880288428,-4.615570795206897e-10,5.330484785055965e-08,-4.98910555899987e-08,0.9999999999999973,0.0;0.0;0.0;0.0;0.0;0.0;0.0;0.0;0.0,7.621289842063561e-05;0.0;0.0;0.0;7.621289842063561e-05;0.0;0.0;0.0;7.621289842063561e-05,3.999999975690116e-08;0.0;0.0;0.0;3.999999975690116e-08;0.0;0.0;0.0;3.999999975690116e-08
8,500000000,8.5,imu_link,-0.005696797564623758,-0.01715909265397165,0.0014193800434585148,-0.00021331276999579375,0.0003722942489225502,9.800278954237655,-4.615570796753896e-10,5.330484785092062e-08,-4.989105559001427e-08,0.9999999999999973,0.0;0.0;0.0;0.0;0.0;0.0;0.0;0.0;0.0,7.621289842063561e-05;0.0;0.0;0.0;7.621289842063561e-05;0.0;0.0;0.0;7.621289842063561e-05,3.999999975690116e-08;0.0;0.0;0.0;3.999999975690116e-08;0.0;0.0;0.0;3.999999975690116e-08
8,520000000,8.52,imu_link,-0.008400695097335781,0.0076947164274277745,-0.007606347928771341,0.00020868961398139965,0.00037875668279824194,9.800283361306652,-4.615570795297532e-10,5.330484785039373e-08,-4.9891055590029024e-08,0.9999999999999973,0.0;0.0;0.0;0.0;0.0;0.0;0.0;0.0;0.0,7.621289842063561e-05;0.0;0.0;0.0;7.621289842063561e-05;0.0;0.0;0.0;7.621289842063561e-05,3.999999975690116e-08;0.0;0.0;0.0;3.999999975690116e-08;0.0;0.0;0.0;3.999999975690116e-08
8,540000000,8.54,imu_link,-0.007846315497636508,-0.007397798831508185,-0.001552163233687538,0.00034985936755945894,0.00017670637911603335,9.800277650374472,-4.615570795837615e-10,5.3304847850565605e-08,-4.9891055590043205e-08,0.9999999999999973,0.0;0.0;0.0;0.0;0.0;0.0;0.0;0.0;0.0,7.621289842063561e-05;0.0;0.0;0.0;7.621289842063561e-05;0.0;0.0;0.0;7.621289842063561e-05,3.999999975690116e-08;0.0;0.0;0.0;3.999999975690116e-08;0.0;0.0;0.0;3.999999975690116e-08
8,560000000,8.56,imu_link,-0.01018872027782729,0.008376814918909901,0.0006786469606687339,-0.00017177746724850477,-2.784316941475482e-05,9.80062289880594,-4.615570793914132e-10,5.330484785070913e-08,-4.9891055590056956e-08,0.9999999999999973,0.0;0.0;0.0;0.0;0.0;0.0;0.0;0.0;0.0,7.621289842063561e-05;0.0;0.0;0.0;7.621289842063561e-05;0.0;0.0;0.0;7.621289842063561e-05,3.999999975690116e-08;0.0;0.0;0.0;3.999999975690116e-08;0.0;0.0;0.0;3.999999975690116e-08
8,580000000,8.58,imu_link,-0.005070975665806331,-0.005272410856444237,0.017462845321689947,5.689358539036534e-05,6.207236370140571e-05,9.799814860849047,-4.6155707945390655e-10,5.330484785088399e-08,-4.9891055590072514e-08,0.9999999999999973,0.0;0.0;0.0;0.0;0.0;0.0;0.0;0.0;0.0,7.621289842063561e-05;0.0;0.0;0.0;7.621289842063561e-05;0.0;0.0;0.0;7.621289842063561e-05,3.999999975690116e-08;0.0;0.0;0.0;3.999999975690116e-08;0.0;0.0;0.0;3.999999975690116e-08
8,600000000,8.6,imu_link,0.002081618909543043,0.003918875714801906,-0.0071461213950807425,-0.00014630121777001805,-0.00015326881986788053,9.799855293568758,-4.6155707941443096e-10,5.3304847850537845e-08,-4.989105559008805e-08,0.9999999999999973,0.0;0.0;0.0;0.0;0.0;0.0;0.0;0.0;0.0,7.621289842063561e-05;0.0;0.0;0.0;7.621289842063561e-05;0.0;0.0;0.0;7.621289842063561e-05,3.999999975690116e-08;0.0;0.0;0.0;3.999999975690116e-08;0.0;0.0;0.0;3.999999975690116e-08
8,620000000,8.62,imu_link,-0.0012609004239712623,0.0082906281998298,0.0075357851386737736,0.00015897060618860358,0.00012997671078730772,9.800057259612723,-4.615570795981676e-10,5.330484785059035e-08,-4.989105559010205e-08,0.9999999999999973,0.0;0.0;0.0;0.0;0.0;0.0;0.0;0.0;0.0,7.621289842063561e-05;0.0;0.0;0.0;7.621289842063561e-05;0.0;0.0;0.0;7.621289842063561e-05,3.999999975690116e-08;0.0;0.0;0.0;3.999999975690116e-08;0.0;0.0;0.0;3.999999975690116e-08
8,640000000,8.64,imu_link,-0.01321069446088536,0.0016108307847336393,-0.010841480082757472,-2.1660123757486402e-05,-5.2104104744938676e-05,9.800100125809541,-4.6155707949511835e-10,5.330484785078196e-08,-4.989105559011622e-08,0.9999999999999973,0.0;0.0;0.0;0.0;0.0;0.0;0.0;0.0;0.0,7.621289842063561e-05;0.0;0.0;0.0;7.621289842063561e-05;0.0;0.0;0.0;7.621289842063561e-05,3.999999975690116e-08;0.0;0.0;0.0;3.999999975690116e-08;0.0;0.0;0.0;3.999999975690116e-08
8,660000000,8.66,imu_link,0.004879844934971694,-0.009266748877221379,-0.008799451135513454,0.00024687542216015777,0.0004891283982070782,9.799940786298492,-4.615570795807037e-10,5.330484785031122e-08,-4.989105559012993e-08,0.9999999999999973,0.0;0.0;0.0;0.0;0.0;0.0;0.0;0.0;0.0,7.621289842063561e-05;0.0;0.0;0.0;7.621289842063561e-05;0.0;0.0;0.0;7.621289842063561e-05,3.999999975690116e-08;0.0;0.0;0.0;3.999999975690116e-08;0.0;0.0;0.0;3.999999975690116e-08
8,680000000,8.68,imu_link,-0.009750312308534773,-0.006200165810525159,0.004462448013967018,-5.252223058294217e-06,0.00015433450258073303,9.800207651376523,-4.6155707950029934e-10,5.330484785050538e-08,-4.9891055590144346e-08,0.9999999999999973,0.0;0.0;0.0;0.0;0.0;0.0;0.0;0.0;0.0,7.621289842063561e-05;0.0;0.0;0.0;7.621289842063561e-05;0.0;0.0;0.0;7.621289842063561e-05,3.999999975690116e-08;0.0;0.0;0.0;3.999999975690116e-08;0.0;0.0;0.0;3.999999975690116e-08
8,700000000,8.7,imu_link,0.013553412187889878,0.0016115868523999884,0.013042927227504645,0.00036279160922563175,7.800666775968309e-05,9.80021266127885,-4.6155707956726173e-10,5.330484785068032e-08,-4.9891055590158865e-08,0.9999999999999973,0.0;0.0;0.0;0.0;0.0;0.0;0.0;0.0;0.0,7.621289842063561e-05;0.0;0.0;0.0;7.621289842063561e-05;0.0;0.0;0.0;7.621289842063561e-05,3.999999975690116e-08;0.0;0.0;0.0;3.999999975690116e-08;0.0;0.0;0.0;3.999999975690116e-08
8,720000000,8.72,imu_link,-0.005285707312187153,-0.005037989363959972,-0.007477983527229305,0.0003092117183223912,0.0006359744404731562,9.80019384326363,-4.615570793928698e-10,5.3304847850352735e-08,-4.9891055590176626e-08,0.9999999999999973,0.0;0.0;0.0;0.0;0.0;0.0;0.0;0.0;0.0,7.621289842063561e-05;0.0;0.0;0.0;7.621289842063561e-05;0.0;0.0;0.0;7.621289842063561e-05,3.999999975690116e-08;0.0;0.0;0.0;3.999999975690116e-08;0.0;0.0;0.0;3.999999975690116e-08
8,740000000,8.74,imu_link,-0.010379747221457668,-0.008943522992447706,0.00010501903507006567,3.256350781068541e-05,0.0003014742211182687,9.799771409895083,-4.6155707959321535e-10,5.3304847850518733e-08,-4.989105559019345e-08,0.9999999999999973,0.0;0.0;0.0;0.0;0.0;0.0;0.0;0.0;0.0,7.621289842063561e-05;0.0;0.0;0.0;7.621289842063561e-05;0.0;0.0;0.0;7.621289842063561e-05,3.999999975690116e-08;0.0;0.0;0.0;3.999999975690116e-08;0.0;0.0;0.0;3.999999975690116e-08
8,760000000,8.76,imu_link,-0.00029378276322879904,0.01853855817887657,0.00312167466733248,-0.00012276004226564291,0.00030747406211519896,9.80008829305649,-4.6155707954183575e-10,5.3304847850523935e-08,-4.989105559020731e-08,0.9999999999999973,0.0;0.0;0.0;0.0;0.0;0.0;0.0;0.0;0.0,7.621289842063561e-05;0.0;0.0;0.0;7.621289842063561e-05;0.0;0.0;0.0;7.621289842063561e-05,3.999999975690116e-08;0.0;0.0;0.0;3.999999975690116e-08;0.0;0.0;0.0;3.999999975690116e-08
8,780000000,8.78,imu_link,-0.0026884665383289834,-0.0036785123089002015,0.007079785456102612,-9.289950511332063e-05,-0.0002789721543781101,9.79990622848527,-4.6155707945402717e-10,5.3304847850831494e-08,-4.989105559022246e-08,0.9999999999999973,0.0;0.0;0.0;0.0;0.0;0.0;0.0;0.0;0.0,7.621289842063561e-05;0.0;0.0;0.0;7.621289842063561e-05;0.0;0.0;0.0;7.621289842063561e-05,3.999999975690116e-08;0.0;0.0;0.0;3.999999975690116e-08;0.0;0.0;0.0;3.999999975690116e-08
8,800000000,8.8,imu_link,-0.00845781696824582,-0.01281587992638709,0.01759424556291158,-3.309282049315943e-05,7.395836799406259e-05,9.800315510486767,-4.615570794052036e-10,5.3304847850493144e-08,-4.989105559023718e-08,0.9999999999999973,0.0;0.0;0.0;0.0;0.0;0.0;0.0;0.0;0.0,7.621289842063561e-05;0.0;0.0;0.0;7.621289842063561e-05;0.0;0.0;0.0;7.621289842063561e-05,3.999999975690116e-08;0.0;0.0;0.0;3.999999975690116e-08;0.0;0.0;0.0;3.999999975690116e-08
8,820000000,8.82,imu_link,-0.0037879139506883305,0.0018708102804919004,0.009549337200654786,0.00040600229691366003,0.0002011989161311753,9.80030664158917,-4.6155707948053195e-10,5.330484785067207e-08,-4.989105559025307e-08,0.9999999999999973,0.0;0.0;0.0;0.0;0.0;0.0;0.0;0.0;0.0,7.621289842063561e-05;0.0;0.0;0.0;7.621289842063561e-05;0.0;0.0;0.0;7.621289842063561e-05,3.999999975690116e-08;0.0;0.0;0.0;3.999999975690116e-08;0.0;0.0;0.0;3.999999975690116e-08
8,840000000,8.84,imu_link,0.022486107385706455,0.011708619893057246,0.01113217961173833,0.0002089202168287034,1.4398481616267802e-05,9.79967472135549,-4.615570794224044e-10,5.3304847850786905e-08,-4.989105559026662e-08,0.9999999999999973,0.0;0.0;0.0;0.0;0.0;0.0;0.0;0.0;0.0,7.621289842063561e-05;0.0;0.0;0.0;7.621289842063561e-05;0.0;0.0;0.0;7.621289842063561e-05,3.999999975690116e-08;0.0;0.0;0.0;3.999999975690116e-08;0.0;0.0;0.0;3.999999975690116e-08
8,860000000,8.86,imu_link,0.00667271922504755,0.002371606812031174,-0.009901566667908736,0.0002571701470425006,0.0001114258340553199,9.799982561266951,-4.615570795206375e-10,5.3304847850311594e-08,-4.989105559028152e-08,0.9999999999999973,0.0;0.0;0.0;0.0;0.0;0.0;0.0;0.0;0.0,7.621289842063561e-05;0.0;0.0;0.0;7.621289842063561e-05;0.0;0.0;0.0;7.621289842063561e-05,3.999999975690116e-08;0.0;0.0;0.0;3.999999975690116e-08;0.0;0.0;0.0;3.999999975690116e-08
8,880000000,8.88,imu_link,0.0026330299125126456,0.017898688286244798,0.002017601599780838,-0.00015333864701820593,0.0002781021707552686,9.800339615234815,-4.6155707959391437e-10,5.330484785048771e-08,-4.989105559030004e-08,0.9999999999999973,0.0;0.0;0.0;0.0;0.0;0.0;0.0;0.0;0.0,7.621289842063561e-05;0.0;0.0;0.0;7.621289842063561e-05;0.0;0.0;0.0;7.621289842063561e-05,3.999999975690116e-08;0.0;0.0;0.0;3.999999975690116e-08;0.0;0.0;0.0;3.999999975690116e-08
8,900000000,8.9,imu_link,0.004793031912156799,-0.0006228471015024183,-0.02638076570885489,0.00042942773466840784,-9.436728959087695e-06,9.800238272905268,-4.6155707942509756e-10,5.33048478506262e-08,-4.98910555903154e-08,0.9999999999999973,0.0;0.0;0.0;0.0;0.0;0.0;0.0;0.0;0.0,7.621289842063561e-05;0.0;0.0;0.0;7.621289842063561e-05;0.0;0.0;0.0;7.621289842063561e-05,3.999999975690116e-08;0.0;0.0;0.0;3.999999975690116e-08;0.0;0.0;0.0;3.999999975690116e-08
8,920000000,8.92,imu_link,-0.010248663472276522,-0.005527251788994905,-0.005627991025416965,0.0003917028207729784,0.00035227500248395384,9.799978483336576,-4.6155707937949044e-10,5.330484785028408e-08,-4.989105559033167e-08,0.9999999999999973,0.0;0.0;0.0;0.0;0.0;0.0;0.0;0.0;0.0,7.621289842063561e-05;0.0;0.0;0.0;7.621289842063561e-05;0.0;0.0;0.0;7.621289842063561e-05,3.999999975690116e-08;0.0;0.0;0.0;3.999999975690116e-08;0.0;0.0;0.0;3.999999975690116e-08
8,940000000,8.94,imu_link,0.005849193346309537,0.003751168883233787,-0.005533298770266471,-0.0003088265815222805,0.0002629710231398163,9.800315002365725,-4.615570795859948e-10,5.330484785032803e-08,-4.989105559034768e-08,0.9999999999999973,0.0;0.0;0.0;0.0;0.0;0.0;0.0;0.0;0.0,7.621289842063561e-05;0.0;0.0;0.0;7.621289842063561e-05;0.0;0.0;0.0;7.621289842063561e-05,3.999999975690116e-08;0.0;0.0;0.0;3.999999975690116e-08;0.0;0.0;0.0;3.999999975690116e-08
8,960000000,8.96,imu_link,0.006764189713626275,-0.005910460117384764,0.008769847195278799,-0.00021674076738413295,0.0002997104095945214,9.800316144596794,-4.6155707964010956e-10,5.330484785062661e-08,-4.989105559036242e-08,0.9999999999999973,0.0;0.0;0.0;0.0;0.0;0.0;0.0;0.0;0.0,7.621289842063561e-05;0.0;0.0;0.0;7.621289842063561e-05;0.0;0.0;0.0;7.621289842063561e-05,3.999999975690116e-08;0.0;0.0;0.0;3.999999975690116e-08;0.0;0.0;0.0;3.999999975690116e-08
8,980000000,8.98,imu_link,0.005996435644970674,0.003369066790687433,-0.005826203305869651,0.00037464907969744044,-0.00031049053317796165,9.799891579893146,-4.615570794645999e-10,5.3304847850758517e-08,-4.9891055590378445e-08,0.9999999999999973,0.0;0.0;0.0;0.0;0.0;0.0;0.0;0.0;0.0,7.621289842063561e-05;0.0;0.0;0.0;7.621289842063561e-05;0.0;0.0;0.0;7.621289842063561e-05,3.999999975690116e-08;0.0;0.0;0.0;3.999999975690116e-08;0.0;0.0;0.0;3.999999975690116e-08
9,0,9.0,imu_link,-0.014924672012438264,0.01691502886660957,0.0023556577569999954,0.0005299062117598109,9.718313205273921e-05,9.800362897075862,-4.615570794101274e-10,5.330484785087145e-08,-4.989105559039636e-08,0.9999999999999973,0.0;0.0;0.0;0.0;0.0;0.0;0.0;0.0;0.0,7.621289842063561e-05;0.0;0.0;0.0;7.621289842063561e-05;0.0;0.0;0.0;7.621289842063561e-05,3.999999975690116e-08;0.0;0.0;0.0;3.999999975690116e-08;0.0;0.0;0.0;3.999999975690116e-08
9,20000000,9.02,imu_link,0.004056255793455937,0.014042241784160482,-0.0011061579968551173,0.0002963636094915897,-3.690184994257443e-05,9.800067148724493,-4.615570795045872e-10,5.3304847850407024e-08,-4.9891055590411426e-08,0.9999999999999973,0.0;0.0;0.0;0.0;0.0;0.0;0.0;0.0;0.0,7.621289842063561e-05;0.0;0.0;0.0;7.621289842063561e-05;0.0;0.0;0.0;7.621289842063561e-05,3.999999975690116e-08;0.0;0.0;0.0;3.999999975690116e-08;0.0;0.0;0.0;3.999999975690116e-08
9,40000000,9.04,imu_link,-0.003317770651692438,-0.009636178491239239,0.001095811542279649,0.00073323777829725,0.00019956151814342084,9.800380546776159,-4.615570795784782e-10,5.33048478505882e-08,-4.9891055590427804e-08,0.9999999999999973,0.0;0.0;0.0;0.0;0.0;0.0;0.0;0.0;0.0,7.621289842063561e-05;0.0;0.0;0.0;7.621289842063561e-05;0.0;0.0;0.0;7.621289842063561e-05,3.999999975690116e-08;0.0;0.0;0.0;3.999999975690116e-08;0.0;0.0;0.0;3.999999975690116e-08
9,60000000,9.06,imu_link,0.00020618342373445207,-0.01934070257217036,-0.007702062025540454,0.00023517599241651887,-4.9755917915320454e-05,9.799896154641953,-4.615570794819431e-10,5.330484785089414e-08,-4.9891055590444354e-08,0.9999999999999973,0.0;0.0;0.0;0.0;0.0;0.0;0.0;0.0;0.0,7.621289842063561e-05;0.0;0.0;0.0;7.621289842063561e-05;0.0;0.0;0.0;7.621289842063561e-05,3.999999975690116e-08;0.0;0.0;0.0;3.999999975690116e-08;0.0;0.0;0.0;3.999999975690116e-08
9,80000000,9.08,imu_link,-0.00517644372362667,0.010170977356684529,0.004298066169066154,0.00020230263787209137,0.00032582510271934314,9.800135539026595,-4.615570795786088e-10,5.330484785041891e-08,-4.989105559046234e-08,0.9999999999999973,0.0;0.0;0.0;0.0;0.0;0.0;0.0;0.0;0.0,7.621289842063561e-05;0.0;0.0;0.0;7.621289842063561e-05;0.0;0.0;0.0;7.621289842063561e-05,3.999999975690116e-08;0.0;0.0;0.0;3.999999975690116e-08;0.0;0.0;0.0;3.999999975690116e-08
9,100000000,9.1,imu_link,-0.005273841629088427,0.001539925721007618,0.0022092122560079626,-3.563495781095871e-05,0.00012757574955888477,9.800017904214299,-4.6155707949081266e-10,5.3304847850614455e-08,-4.989105559047841e-08,0.9999999999999973,0.0;0.0;0.0;0.0;0.0;0.0;0.0;0.0;0.0,7.621289842063561e-05;0.0;0.0;0.0;7.621289842063561e-05;0.0;0.0;0.0;7.621289842063561e-05,3.999999975690116e-08;0.0;0.0;0.0;3.999999975690116e-08;0.0;0.0;0.0;3.999999975690116e-08
9,120000000,9.12,imu_link,-0.0033209434275852695,-0.016559553545689287,-0.00867634107891759,0.0003173576894787347,0.0002636310937817579,9.800271871439183,-4.615570794532692e-10,5.330484785073265e-08,-4.98910555904958e-08,0.9999999999999973,0.0;0.0;0.0;0.0;0.0;0.0;0.0;0.0;0.0,7.621289842063561e-05;0.0;0.0;0.0;7.621289842063561e-05;0.0;0.0;0.0;7.621289842063561e-05,3.999999975690116e-08;0.0;0.0;0.0;3.999999975690116e-08;0.0;0.0;0.0;3.999999975690116e-08
9,140000000,9.14,imu_link,-0.0039196968037088515,-0.014813244400829097,0.008695064971711396,-0.00028580980312207247,-0.0001959829925870656,9.799664672960633,-4.6155707940219567e-10,5.3304847850847025e-08,-4.9891055590512845e-08,0.9999999999999973,0.0;0.0;0.0;0.0;0.0;0.0;0.0;0.0;0.0,7.621289842063561e-05;0.0;0.0;0.0;7.621289842063561e-05;0.0;0.0;0.0;7.621289842063561e-05,3.999999975690116e-08;0.0;0.0;0.0;3.999999975690116e-08;0.0;0.0;0.0;3.999999975690116e-08
9,160000000,9.16,imu_link,-0.005562799400349186,0.0010504566965165174,-0.008878248561202576,0.00037677635103063186,0.0001102764389283133,9.800220353598391,-4.615570794929548e-10,5.330484785037428e-08,-4.989105559052862e-08,0.9999999999999973,0.0;0.0;0.0;0.0;0.0;0.0;0.0;0.0;0.0,7.621289842063561e-05;0.0;0.0;0.0;7.621289842063561e-05;0.0;0.0;0.0;7.621289842063561e-05,3.999999975690116e-08;0.0;0.0;0.0;3.999999975690116e-08;0.0;0.0;0.0;3.999999975690116e-08
9,180000000,9.18,imu_link,0.004436237822823099,0.001289326225839804,-0.0027769865195317743,-0.00010292926842792319,-0.00020436249609911386,9.799901614088407,-4.615570796397547e-10,5.3304847850739524e-08,-4.9891055590543934e-08,0.9999999999999973,0.0;0.0;0.0;0.0;0.0;0.0;0.0;0.0;0.0,7.621289842063561e-05;0.0;0.0;0.0;7.621289842063561e-05;0.0;0.0;0.0;7.621289842063561e-05,3.999999975690116e-08;0.0;0.0;0.0;3.999999975690116e-08;0.0;0.0;0.0;3.999999975690116e-08
9,200000000,9.2,imu_link,0.011841136217576325,-0.013795929385503412,-0.0019831089034170425,-0.0002330376168274047,6.53823732239227e-05,9.799813594510285,-4.6155707944856007e-10,5.330484785087219e-08,-4.9891055590558744e-08,0.9999999999999973,0.0;0.0;0.0;0.0;0.0;0.0;0.0;0.0;0.0,7.621289842063561e-05;0.0;0.0;0.0;7.621289842063561e-05;0.0;0.0;0.0;7.621289842063561e-05,3.999999975690116e-08;0.0;0.0;0.0;3.999999975690116e-08;0.0;0.0;0.0;3.999999975690116e-08
9,220000000,9.22,imu_link,-0.011912765957340468,0.003138496229735249,-0.007401821817955076,2.6499427612576077e-05,-0.00021259516204064264,9.799887838150582,-4.615570795385086e-10,5.330484785039281e-08,-4.989105559057404e-08,0.9999999999999973,0.0;0.0;0.0;0.0;0.0;0.0;0.0;0.0;0.0,7.621289842063561e-05;0.0;0.0;0.0;7.621289842063561e-05;0.0;0.0;0.0;7.621289842063561e-05,3.999999975690116e-08;0.0;0.0;0.0;3.999999975690116e-08;0.0;0.0;0.0;3.999999975690116e-08
9,240000000,9.24,imu_link,-0.012703203593706452,-0.0018899989238240573,0.00771378828297337,1.7364030160374258e-05,0.00016041174836483414,9.800218148764706,-4.6155707948361914e-10,5.3304847850513056e-08,-4.989105559058911e-08,0.9999999999999973,0.0;0.0;0.0;0.0;0.0;0.0;0.0;0.0;0.0,7.621289842063561e-05;0.0;0.0;0.0;7.621289842063561e-05;0.0;0.0;0.0;7.621289842063561e-05,3.999999975690116e-08;0.0;0.0;0.0;3.999999975690116e-08;0.0;0.0;0.0;3.999999975690116e-08
9,260000000,9.26,imu_link,-0.00035337943064025975,-0.008540836630580957,0.0033490978147582714,2.1676071524265582e-05,-0.0003006000471226912,9.800254206865697,-4.6155707954155647e-10,5.330484785069153e-08,-4.989105559060383e-08,0.9999999999999973,0.0;0.0;0.0;0.0;0.0;0.0;0.0;0.0;0.0,7.621289842063561e-05;0.0;0.0;0.0;7.621289842063561e-05;0.0;0.0;0.0;7.621289842063561e-05,3.999999975690116e-08;0.0;0.0;0.0;3.999999975690116e-08;0.0;0.0;0.0;3.999999975690116e-08
9,280000000,9.28,imu_link,0.0017505488314101215,-0.007014089126077464,-0.0007755076349666607,-2.852774329576926e-05,-0.000244933736416441,9.800000885319468,-4.615570795845755e-10,5.330484785039672e-08,-4.989105559061848e-08,0.9999999999999973,0.0;0.0;0.0;0.0;0.0;0.0;0.0;0.0;0.0,7.621289842063561e-05;0.0;0.0;0.0;7.621289842063561e-05;0.0;0.0;0.0;7.621289842063561e-05,3.999999975690116e-08;0.0;0.0;0.0;3.999999975690116e-08;0.0;0.0;0.0;3.999999975690116e-08
9,300000000,9.3,imu_link,-0.012036700366315966,0.008017397183457732,-0.012167661145846661,2.390594446934287e-05,-1.4994957934975862e-06,9.800154752799777,-4.615570793850579e-10,5.3304847850405575e-08,-4.9891055590634235e-08,0.9999999999999973,0.0;0.0;0.0;0.0;0.0;0.0;0.0;0.0;0.0,7.621289842063561e-05;0.0;0.0;0.0;7.621289842063561e-05;0.0;0.0;0.0;7.621289842063561e-05,3.999999975690116e-08;0.0;0.0;0.0;3.999999975690116e-08;0.0;0.0;0.0;3.999999975690116e-08
9,320000000,9.32,imu_link,0.005281695875288443,-0.0011247603937784717,-0.01747083936015378,-0.00018010412623960443,0.000141026603620266,9.79986701451915,-4.615570794375069e-10,5.330484785058818e-08,-4.989105559064974e-08,0.9999999999999973,0.0;0.0;0.0;0.0;0.0;0.0;0.0;0.0;0.0,7.621289842063561e-05;0.0;0.0;0.0;7.621289842063561e-05;0.0;0.0;0.0;7.621289842063561e-05,3.999999975690116e-08;0.0;0.0;0.0;3.999999975690116e-08;0.0;0.0;0.0;3.999999975690116e-08
9,340000000,9.34,imu_link,0.0047863884400021995,0.010313564420498916,-0.0172684982097697,-4.002078417193947e-05,0.00038098088122074975,9.800194829895092,-4.615570793996329e-10,5.33048478502572e-08,-4.989105559066676e-08,0.9999999999999973,0.0;0.0;0.0;0.0;0.0;0.0;0.0;0.0;0.0,7.621289842063561e-05;0.0;0.0;0.0;7.621289842063561e-05;0.0;0.0;0.0;7.621289842063561e-05,3.999999975690116e-08;0.0;0.0;0.0;3.999999975690116e-08;0.0;0.0;0.0;3.999999975690116e-08
9,360000000,9.36,imu_link,0.001494040093388587,0.0029864913646010655,0.004855518050289262,0.0003183493082003449,-4.6303107581428284e-05,9.79991708677208,-4.615570796014471e-10,5.330484785043197e-08,-4.9891055590681616e-08,0.9999999999999973,0.0;0.0;0.0;0.0;0.0;0.0;0.0;0.0;0.0,7.621289842063561e-05;0.0;0.0;0.0;7.621289842063561e-05;0.0;0.0;0.0;7.621289842063561e-05,3.999999975690116e-08;0.0;0.0;0.0;3.999999975690116e-08;0.0;0.0;0.0;3.999999975690116e-08
9,380000000,9.38,imu_link,0.00537846557966686,-0.0062228815480452225,-0.0051015638067386185,-0.00016861057520412822,0.0004961762587347603,9.799982192741753,-4.615570794180489e-10,5.330484785055956e-08,-4.989105559069746e-08,0.9999999999999973,0.0;0.0;0.0;0.0;0.0;0.0;0.0;0.0;0.0,7.621289842063561e-05;0.0;0.0;0.0;7.621289842063561e-05;0.0;0.0;0.0;7.621289842063561e-05,3.999999975690116e-08;0.0;0.0;0.0;3.999999975690116e-08;0.0;0.0;0.0;3.999999975690116e-08
9,400000000,9.4,imu_link,-0.00985294933618168,-0.001197626098617478,-0.0037888221290512205,-5.4461894627329675e-05,-8.189989024627645e-05,9.80029292448981,-4.61557079607788e-10,5.3304847850730776e-08,-4.9891055590711216e-08,0.9999999999999973,0.0;0.0;0.0;0.0;0.0;0.0;0.0;0.0;0.0,7.621289842063561e-05;0.0;0.0;0.0;7.621289842063561e-05;0.0;0.0;0.0;7.621289842063561e-05,3.999999975690116e-08;0.0;0.0;0.0;3.999999975690116e-08;0.0;0.0;0.0;3.999999975690116e-08
9,420000000,9.42,imu_link,0.005321303340621863,0.011461793847082825,-0.007273514899707162,0.00014962991186166525,8.118441697006147e-05,9.800328843046962,-4.615570794177452e-10,5.3304847850849434e-08,-4.989105559072632e-08,0.9999999999999973,0.0;0.0;0.0;0.0;0.0;0.0;0.0;0.0;0.0,7.621289842063561e-05;0.0;0.0;0.0;7.621289842063561e-05;0.0;0.0;0.0;7.621289842063561e-05,3.999999975690116e-08;0.0;0.0;0.0;3.999999975690116e-08;0.0;0.0;0.0;3.999999975690116e-08
9,440000000,9.44,imu_link,-0.01092006244258473,0.0007395015103974482,0.01974535067531247,3.828367493641771e-05,7.260557199898465e-05,9.799761055208656,-4.6155707962510327e-10,5.330484785055293e-08,-4.989105559074079e-08,0.9999999999999973,0.0;0.0;0.0;0.0;0.0;0.0;0.0;0.0;0.0,7.621289842063561e-05;0.0;0.0;0.0;7.621289842063561e-05;0.0;0.0;0.0;7.621289842063561e-05,3.999999975690116e-08;0.0;0.0;0.0;3.999999975690116e-08;0.0;0.0;0.0;3.999999975690116e-08
9,460000000,9.46,imu_link,0.0077456062024985495,0.0052081046537030195,0.0028108999229563073,0.00024174663571897826,0.0003109419031771264,9.800634041523285,-4.615570795900049e-10,5.3304847850673906e-08,-4.989105559075581e-08,0.9999999999999973,0.0;0.0;0.0;0.0;0.0;0.0;0.0;0.0;0.0,7.621289842063561e-05;0.0;0.0;0.0;7.621289842063561e-05;0.0;0.0;0.0;7.621289842063561e-05,3.999999975690116e-08;0.0;0.0;0.0;3.999999975690116e-08;0.0;0.0;0.0;3.999999975690116e-08
9,480000000,9.48,imu_link,0.01896967446309858,-0.0016255527692403766,-0.011614626200017056,0.00020994231149594266,0.0001736602693053408,9.79994531687972,-4.6155707949389763e-10,5.3304847850865666e-08,-4.989105559077047e-08,0.9999999999999973,0.0;0.0;0.0;0.0;0.0;0.0;0.0;0.0;0.0,7.621289842063561e-05;0.0;0.0;0.0;7.621289842063561e-05;0.0;0.0;0.0;7.621289842063561e-05,3.999999975690116e-08;0.0;0.0;0.0;3.999999975690116e-08;0.0;0.0;0.0;3.999999975690116e-08
9,500000000,9.5,imu_link,0.0025091997501405783,-0.002895546430504856,0.005506264713972105,7.5308238485097885e-06,0.0002083975073076042,9.800227703079571,-4.615570795738742e-10,5.3304847850399414e-08,-4.989105559078547e-08,0.9999999999999973,0.0;0.0;0.0;0.0;0.0;0.0;0.0;0.0;0.0,7.621289842063561e-05;0.0;0.0;0.0;7.621289842063561e-05;0.0;0.0;0.0;7.621289842063561e-05,3.999999975690116e-08;0.0;0.0;0.0;3.999999975690116e-08;0.0;0.0;0.0;3.999999975690116e-08
9,520000000,9.52,imu_link,-0.002204597668192835,0.008143727963979061,-0.005285768957876018,-0.00014221886004298803,-0.00016611949943281227,9.799986593515555,-4.6155707947597113e-10,5.3304847850602854e-08,-4.989105559079866e-08,0.9999999999999973,0.0;0.0;0.0;0.0;0.0;0.0;0.0;0.0;0.0,7.621289842063561e-05;0.0;0.0;0.0;7.621289842063561e-05;0.0;0.0;0.0;7.621289842063561e-05,3.999999975690116e-08;0.0;0.0;0.0;3.999999975690116e-08;0.0;0.0;0.0;3.999999975690116e-08
9,540000000,9.54,imu_link,0.007336360825634389,-0.005669309476087766,-0.008738868682288209,-0.00022981401590897358,3.522435593677837e-05,9.800122064586137,-4.6155707942766177e-10,5.330484785071985e-08,-4.9891055590816844e-08,0.9999999999999973,0.0;0.0;0.0;0.0;0.0;0.0;0.0;0.0;0.0,7.621289842063561e-05;0.0;0.0;0.0;7.621289842063561e-05;0.0;0.0;0.0;7.621289842063561e-05,3.999999975690116e-08;0.0;0.0;0.0;3.999999975690116e-08;0.0;0.0;0.0;3.999999975690116e-08
9,560000000,9.56,imu_link,-0.014964572498756535,-0.0005509797020063267,-0.01451396527158455,-2.259338120958639e-05,0.00021430637198236656,9.799995095384261,-4.615570793736627e-10,5.3304847850262724e-08,-4.989105559083152e-08,0.9999999999999973,0.0;0.0;0.0;0.0;0.0;0.0;0.0;0.0;0.0,7.621289842063561e-05;0.0;0.0;0.0;7.621289842063561e-05;0.0;0.0;0.0;7.621289842063561e-05,3.999999975690116e-08;0.0;0.0;0.0;3.999999975690116e-08;0.0;0.0;0.0;3.999999975690116e-08
9,580000000,9.58,imu_link,-0.008197297786347538,-0.005326304863578974,-0.0024091765996768913,-0.0003423828286016036,-0.00016952227035823463,9.800316361311104,-4.6155707941425694e-10,5.330484785044669e-08,-4.989105559084702e-08,0.9999999999999973,0.0;0.0;0.0;0.0;0.0;0.0;0.0;0.0;0.0,7.621289842063561e-05;0.0;0.0;0.0;7.621289842063561e-05;0.0;0.0;0.0;7.621289842063561e-05,3.999999975690116e-08;0.0;0.0;0.0;3.999999975690116e-08;0.0;0.0;0.0;3.999999975690116e-08
9,600000000,9.6,imu_link,-0.007921302273102063,-0.0005168731075826659,0.012021642001113334,0.00013667226519730466,0.0001583256743885184,9.800143271086911,-4.6155707960755556e-10,5.330484785062139e-08,-4.989105559086262e-08,0.9999999999999973,0.0;0.0;0.0;0.0;0.0;0.0;0.0;0.0;0.0,7.621289842063561e-05;0.0;0.0;0.0;7.621289842063561e-05;0.0;0.0;0.0;7.621289842063561e-05,3.999999975690116e-08;0.0;0.0;0.0;3.999999975690116e-08;0.0;0.0;0.0;3.999999975690116e-08
9,620000000,9.62,imu_link,-0.0015983818360684355,-0.0004512712133131029,-0.009123385813024035,-0.00020204801963566378,-7.795638948278037e-05,9.800280401031083,-4.6155707955527526e-10,5.3304847850277316e-08,-4.9891055590878915e-08,0.9999999999999973,0.0;0.0;0.0;0.0;0.0;0.0;0.0;0.0;0.0,7.621289842063561e-05;0.0;0.0;0.0;7.621289842063561e-05;0.0;0.0;0.0;7.621289842063561e-05,3.999999975690116e-08;0.0;0.0;0.0;3.999999975690116e-08;0.0;0.0;0.0;3.999999975690116e-08
9,640000000,9.64,imu_link,-0.0022329343994663105,0.0036630282284594944,0.004679189251033311,0.00020038837726328715,2.7490893861047946e-05,9.800308887532534,-4.615570796143642e-10,5.330484785045266e-08,-4.989105559089501e-08,0.9999999999999973,0.0;0.0;0.0;0.0;0.0;0.0;0.0;0.0;0.0,7.621289842063561e-05;0.0;0.0;0.0;7.621289842063561e-05;0.0;0.0;0.0;7.621289842063561e-05,3.999999975690116e-08;0.0;0.0;0.0;3.999999975690116e-08;0.0;0.0;0.0;3.999999975690116e-08
9,660000000,9.66,imu_link,-0.006394777035923103,-0.010792644440370322,0.0032745431782162686,8.346020779994707e-05,8.830765191613523e-05,9.799985268861137,-4.6155707942586353e-10,5.330484785058081e-08,-4.9891055590908694e-08,0.9999999999999973,0.0;0.0;0.0;0.0;0.0;0.0;0.0;0.0;0.0,7.621289842063561e-05;0.0;0.0;0.0;7.621289842063561e-05;0.0;0.0;0.0;7.621289842063561e-05,3.999999975690116e-08;0.0;0.0;0.0;3.999999975690116e-08;0.0;0.0;0.0;3.999999975690116e-08
9,680000000,9.68,imu_link,0.007305699621035466,0.010721659688245115,-0.0038026808178352137,0.00018791547011490057,-0.00013173381930327177,9.800076742275674,-4.615570793721424e-10,5.330484785069282e-08,-4.989105559092293e-08,0.9999999999999973,0.0;0.0;0.0;0.0;0.0;0.0;0.0;0.0;0.0,7.621289842063561e-05;0.0;0.0;0.0;7.621289842063561e-05;0.0;0.0;0.0;7.621289842063561e-05,3.999999975690116e-08;0.0;0.0;0.0;3.999999975690116e-08;0.0;0.0;0.0;3.999999975690116e-08
