time_sec,time_nsec,timestamp,frame_id,angular_vel_x,angular_vel_y,angular_vel_z,linear_acc_x,linear_acc_y,linear_acc_z,orient_x,orient_y,orient_z,orient_w,orientation_covariance,angular_velocity_covariance,linear_acceleration_covariance
25,920000000,25.92,imu_link,0.005419396166135142,-0.007834138443966576,0.018709958057464508,0.00033188780701363507,-7.551877528787516e-05,9.800014039441622,-4.6155707947015016e-10,5.330484785068702e-08,-4.989105560367657e-08,0.9999999999999973,0.0;0.0;0.0;0.0;0.0;0.0;0.0;0.0;0.0,7.621289842063561e-05;0.0;0.0;0.0;7.621289842063561e-05;0.0;0.0;0.0;7.621289842063561e-05,3.999999975690116e-08;0.0;0.0;0.0;3.999999975690116e-08;0.0;0.0;0.0;3.999999975690116e-08
25,940000000,25.94,imu_link,0.0009242744296983103,-0.008227513155130017,-0.004581315451139084,0.00027385340956185053,0.00048787325347405684,9.800379947193553,-4.6155707948873075e-10,5.330484785086473e-08,-4.989105560368898e-08,0.9999999999999973,0.0;0.0;0.0;0.0;0.0;0.0;0.0;0.0;0.0,7.621289842063561e-05;0.0;0.0;0.0;7.621289842063561e-05;0.0;0.0;0.0;7.621289842063561e-05,3.999999975690116e-08;0.0;0.0;0.0;3.999999975690116e-08;0.0;0.0;0.0;3.999999975690116e-08
25,960000000,25.96,imu_link,0.009216032341713882,-0.008551085914806099,0.0010834714519867524,0.0002304048819874852,0.00019335170063499314,9.799852267521857,-4.6155707945428106e-10,5.3304847850336284e-08,-4.9891055603704e-08,0.9999999999999973,0.0;0.0;0.0;0.0;0.0;0.0;0.0;0.0;0.0,7.621289842063561e-05;0.0;0.0;0.0;7.621289842063561e-05;0.0;0.0;0.0;7.621289842063561e-05,3.999999975690116e-08;0.0;0.0;0.0;3.999999975690116e-08;0.0;0.0;0.0;3.999999975690116e-08
25,980000000,25.98,imu_link,-0.00019143012242648288,-0.004873284348574259,-0.00045160118335662653,0.00014564341613676246,-0.0001224489142623437,9.799875755298237,-4.6155707944744317e-10,5.330484785058379e-08,-4.989105560371692e-08,0.9999999999999973,0.0;0.0;0.0;0.0;0.0;0.0;0.0;0.0;0.0,7.621289842063561e-05;0.0;0.0;0.0;7.621289842063561e-05;0.0;0.0;0.0;7.621289842063561e-05,3.999999975690116e-08;0.0;0.0;0.0;3.999999975690116e-08;0.0;0.0;0.0;3.999999975690116e-08
26,0,26.0,imu_link,0.008302846747737189,0.000966651525553644,0.0031350835924507164,0.00038822154119424416,0.0002558653357398867,9.799994612386595,-4.6155707937561065e-10,5.330484785071385e-08,-4.989105560373281e-08,0.9999999999999973,0.0;0.0;0.0;0.0;0.0;0.0;0.0;0.0;0.0,7.621289842063561e-05;0.0;0.0;0.0;7.621289842063561e-05;0.0;0.0;0.0;7.621289842063561e-05,3.999999975690116e-08;0.0;0.0;0.0;3.999999975690116e-08;0.0;0.0;0.0;3.999999975690116e-08
26,20000000,26.02,imu_link,0.004538449676690623,0.007328839913735183,0.00022771097170136997,0.00018334909324820944,-2.1599335079974368e-05,9.80008736066402,-4.6155707940533534e-10,5.3304847850876724e-08,-4.98910556037483e-08,0.9999999999999973,0.0;0.0;0.0;0.0;0.0;0.0;0.0;0.0;0.0,7.621289842063561e-05;0.0;0.0;0.0;7.621289842063561e-05;0.0;0.0;0.0;7.621289842063561e-05,3.999999975690116e-08;0.0;0.0;0.0;3.999999975690116e-08;0.0;0.0;0.0;3.999999975690116e-08
26,40000000,26.04,imu_link,0.0006530768390796911,0.004525488365273073,-0.0004639198119704858,-3.5679012641869426e-05,3.5197562865753533e-05,9.800032897835576,-4.615570794683999e-10,5.3304847850408255e-08,-4.989105560376287e-08,0.9999999999999973,0.0;0.0;0.0;0.0;0.0;0.0;0.0;0.0;0.0,7.621289842063561e-05;0.0;0.0;0.0;7.621289842063561e-05;0.0;0.0;0.0;7.621289842063561e-05,3.999999975690116e-08;0.0;0.0;0.0;3.999999975690116e-08;0.0;0.0;0.0;3.999999975690116e-08
26,60000000,26.06,imu_link,0.00016583496255924548,-0.0067911923605721925,0.006305094381678665,0.00022977383285540065,0.00011350491206797581,9.799980765522319,-4.6155707948792896e-10,5.330484785057609e-08,-4.989105560377762e-08,0.9999999999999973,0.0;0.0;0.0;0.0;0.0;0.0;0.0;0.0;0.0,7.621289842063561e-05;0.0;0.0;0.0;7.621289842063561e-05;0.0;0.0;0.0;7.621289842063561e-05,3.999999975690116e-08;0.0;0.0;0.0;3.999999975690116e-08;0.0;0.0;0.0;3.999999975690116e-08
26,80000000,26.08,imu_link,-0.0011574406280586277,0.0038517020590980665,-0.0025823716503358715,-6.672223217320166e-05,0.00014749096297263616,9.800099060487915,-4.615570795181147e-10,5.330484785028235e-08,-4.989105560379108e-08,0.9999999999999973,0.0;0.0;0.0;0.0;0.0;0.0;0.0;0.0;0.0,7.621289842063561e-05;0.0;0.0;0.0;7.621289842063561e-05;0.0;0.0;0.0;7.621289842063561e-05,3.999999975690116e-08;0.0;0.0;0.0;3.999999975690116e-08;0.0;0.0;0.0;3.999999975690116e-08
26,100000000,26.1,imu_link,-0.001981464364391738,0.01329059268324364,-0.0015313707153436793,0.0003072335420109061,0.00019885335196879772,9.79973458720273,-4.6155707940698546e-10,5.330484785046727e-08,-4.989105560380469e-08,0.9999999999999973,0.0;0.0;0.0;0.0;0.0;0.0;0.0;0.0;0.0,7.621289842063561e-05;0.0;0.0;0.0;7.621289842063561e-05;0.0;0.0;0.0;7.621289842063561e-05,3.999999975690116e-08;0.0;0.0;0.0;3.999999975690116e-08;0.0;0.0;0.0;3.999999975690116e-08
26,120000000,26.12,imu_link,-0.008260491142020062,0.003691017784624274,-0.016753856250471995,5.585480837370134e-05,-4.9055012848165806e-05,9.800177505332845,-4.6155707958290253e-10,5.3304847850627564e-08,-4.989105560382081e-08,0.9999999999999973,0.0;0.0;0.0;0.0;0.0;0.0;0.0;0.0;0.0,7.621289842063561e-05;0.0;0.0;0.0;7.621289842063561e-05;0.0;0.0;0.0;7.621289842063561e-05,3.999999975690116e-08;0.0;0.0;0.0;3.999999975690116e-08;0.0;0.0;0.0;3.999999975690116e-08
26,140000000,26.14,imu_link,0.01087551007403777,0.0011207799909751187,0.022763393767849343,0.0003661421210790791,0.00022474897300699421,9.799658906418335,-4.6155707936632746e-10,5.330484785075583e-08,-4.98910556038347e-08,0.9999999999999973,0.0;0.0;0.0;0.0;0.0;0.0;0.0;0.0;0.0,7.621289842063561e-05;0.0;0.0;0.0;7.621289842063561e-05;0.0;0.0;0.0;7.621289842063561e-05,3.999999975690116e-08;0.0;0.0;0.0;3.999999975690116e-08;0.0;0.0;0.0;3.999999975690116e-08
26,160000000,26.16,imu_link,-0.0022666450716997888,0.012260224117520395,-0.007322468067021843,-4.2182489217622464e-05,9.568234395740844e-05,9.799635216802454,-4.615570793972112e-10,5.33048478503562e-08,-4.9891055603848327e-08,0.9999999999999973,0.0;0.0;0.0;0.0;0.0;0.0;0.0;0.0;0.0,7.621289842063561e-05;0.0;0.0;0.0;7.621289842063561e-05;0.0;0.0;0.0;7.621289842063561e-05,3.999999975690116e-08;0.0;0.0;0.0;3.999999975690116e-08;0.0;0.0;0.0;3.999999975690116e-08
26,180000000,26.18,imu_link,-0.014861743489082665,-0.01127939241687157,-0.0003329762782498937,-8.677347624942541e-05,-0.0001780734436826062,9.80031971656422,-4.6155707958105166e-10,5.330484785053193e-08,-4.98910556038637e-08,0.9999999999999973,0.0;0.0;0.0;0.0;0.0;0.0;0.0;0.0;0.0,7.621289842063561e-05;0.0;0.0;0.0;7.621289842063561e-05;0.0;0.0;0.0;7.621289842063561e-05,3.999999975690116e-08;0.0;0.0;0.0;3.999999975690116e-08;0.0;0.0;0.0;3.999999975690116e-08
26,200000000,26.2,imu_link,0.0012635560661292513,-6.78198382756369e-05,0.003739546446777854,0.00019916026727105878,0.00018919815045501906,9.799683244844987,-4.615570795982571e-10,5.3304847850706225e-08,-4.9891055603876676e-08,0.9999999999999973,0.0;0.0;0.0;0.0;0.0;0.0;0.0;0.0;0.0,7.621289842063561e-05;0.0;0.0;0.0;7.621289842063561e-05;0.0;0.0;0.0;7.621289842063561e-05,3.999999975690116e-08;0.0;0.0;0.0;3.999999975690116e-08;0.0;0.0;0.0;3.999999975690116e-08
26,220000000,26.22,imu_link,0.008170795773868993,0.005614416970386636,-0.0058481487913889995,-0.0002433007116763287,-0.0001832839244721875,9.799857027606587,-4.615570793878472e-10,5.3304847850838124e-08,-4.9891055603891565e-08,0.9999999999999973,0.0;0.0;0.0;0.0;0.0;0.0;0.0;0.0;0.0,7.621289842063561e-05;0.0;0.0;0.0;7.621289842063561e-05;0.0;0.0;0.0;7.621289842063561e-05,3.999999975690116e-08;0.0;0.0;0.0;3.999999975690116e-08;0.0;0.0;0.0;3.999999975690116e-08
26,240000000,26.24,imu_link,0.00263399109734129,0.002528871318469077,-0.003960170610561397,-0.0002683080388767158,-1.02103675463379e-05,9.799666129778632,-4.6155707942169443e-10,5.3304847850544654e-08,-4.989105560390519e-08,0.9999999999999973,0.0;0.0;0.0;0.0;0.0;0.0;0.0;0.0;0.0,7.621289842063561e-05;0.0;0.0;0.0;7.621289842063561e-05;0.0;0.0;0.0;7.621289842063561e-05,3.999999975690116e-08;0.0;0.0;0.0;3.999999975690116e-08;0.0;0.0;0.0;3.999999975690116e-08
26,260000000,26.26,imu_link,0.001535387135672384,0.000988438445435049,-0.023641463137802507,0.0003144961995221557,-0.0005028882301734355,9.799657880637822,-4.615570795975965e-10,5.330484785060034e-08,-4.9891055603918994e-08,0.9999999999999973,0.0;0.0;0.0;0.0;0.0;0.0;0.0;0.0;0.0,7.621289842063561e-05;0.0;0.0;0.0;7.621289842063561e-05;0.0;0.0;0.0;7.621289842063561e-05,3.999999975690116e-08;0.0;0.0;0.0;3.999999975690116e-08;0.0;0.0;0.0;3.999999975690116e-08
26,280000000,26.28,imu_link,0.0007399893986811436,-0.004671997870505433,-0.009698722801687935,6.413309360830878e-05,0.00023094862602481784,9.799679059288971,-4.615570795166473e-10,5.330484785026388e-08,-4.9891055603933354e-08,0.9999999999999973,0.0;0.0;0.0;0.0;0.0;0.0;0.0;0.0;0.0,7.621289842063561e-05;0.0;0.0;0.0;7.621289842063561e-05;0.0;0.0;0.0;7.621289842063561e-05,3.999999975690116e-08;0.0;0.0;0.0;3.999999975690116e-08;0.0;0.0;0.0;3.999999975690116e-08
26,300000000,26.3,imu_link,-0.002275000781747951,-0.0022356075034617243,0.012890194148849272,0.0004893982921619058,4.7966970897517596e-05,9.79997322684529,-4.6155707939977937e-10,5.330484785045445e-08,-4.989105560394577e-08,0.9999999999999973,0.0;0.0;0.0;0.0;0.0;0.0;0.0;0.0;0.0,7.621289842063561e-05;0.0;0.0;0.0;7.621289842063561e-05;0.0;0.0;0.0;7.621289842063561e-05,3.999999975690116e-08;0.0;0.0;0.0;3.999999975690116e-08;0.0;0.0;0.0;3.999999975690116e-08
26,320000000,26.32,imu_link,-0.011669651751142747,0.0039029058518366224,0.005159583209226014,0.00012677031977511167,0.0001802558509761144,9.799735316985766,-4.615570795744446e-10,5.3304847850627974e-08,-4.989105560395991e-08,0.9999999999999973,0.0;0.0;0.0;0.0;0.0;0.0;0.0;0.0;0.0,7.621289842063561e-05;0.0;0.0;0.0;7.621289842063561e-05;0.0;0.0;0.0;7.621289842063561e-05,3.999999975690116e-08;0.0;0.0;0.0;3.999999975690116e-08;0.0;0.0;0.0;3.999999975690116e-08
26,340000000,26.34,imu_link,0.004046777008902236,0.0028561364291007398,0.012330116881553128,0.00017977141836127023,0.0001726406780319796,9.79983724327392,-4.615570797120666e-10,5.330484785086141e-08,-4.989105560397524e-08,0.9999999999999973,0.0;0.0;0.0;0.0;0.0;0.0;0.0;0.0;0.0,7.621289842063561e-05;0.0;0.0;0.0;7.621289842063561e-05;0.0;0.0;0.0;7.621289842063561e-05,3.999999975690116e-08;0.0;0.0;0.0;3.999999975690116e-08;0.0;0.0;0.0;3.999999975690116e-08
26,360000000,26.36,imu_link,-0.013821120433763722,0.024929032092292826,-0.0018760061739667014,-8.08351812588838e-05,0.00045432906721182753,9.799924411646584,-4.6155707952375213e-10,5.33048478503451e-08,-4.989105560398918e-08,0.9999999999999973,0.0;0.0;0.0;0.0;0.0;0.0;0.0;0.0;0.0,7.621289842063561e-05;0.0;0.0;0.0;7.621289842063561e-05;0.0;0.0;0.0;7.621289842063561e-05,3.999999975690116e-08;0.0;0.0;0.0;3.999999975690116e-08;0.0;0.0;0.0;3.999999975690116e-08
26,380000000,26.38,imu_link,0.004213389110818112,0.0022363511506203453,-0.008165275700706423,0.00038238740799026406,0.00010935866490365764,9.799860173954166,-4.615570795585476e-10,5.330484785052343e-08,-4.989105560400368e-08,0.9999999999999973,0.0;0.0;0.0;0.0;0.0;0.0;0.0;0.0;0.0,7.621289842063561e-05;0.0;0.0;0.0;7.621289842063561e-05;0.0;0.0;0.0;7.621289842063561e-05,3.999999975690116e-08;0.0;0.0;0.0;3.999999975690116e-08;0.0;0.0;0.0;3.999999975690116e-08
26,400000000,26.4,imu_link,0.004743037902808525,0.005677829833578097,0.009037022357686117,0.0005208171585583156,9.435413500449814e-05,9.800076687362775,-4.6155707958029163e-10,5.330484785070077e-08,-4.989105560401755e-08,0.9999999999999973,0.0;0.0;0.0;0.0;0.0;0.0;0.0;0.0;0.0,7.621289842063561e-05;0.0;0.0;0.0;7.621289842063561e-05;0.0;0.0;0.0;7.621289842063561e-05,3.999999975690116e-08;0.0;0.0;0.0;3.999999975690116e-08;0.0;0.0;0.0;3.999999975690116e-08
26,420000000,26.42,imu_link,-0.0026776689311727607,0.008522993866625746,-0.0020295219313868295,7.977066319944725e-05,0.0003475397032530359,9.799948897489735,-4.615570793832431e-10,5.330484785083309e-08,-4.989105560403248e-08,0.9999999999999973,0.0;0.0;0.0;0.0;0.0;0.0;0.0;0.0;0.0,7.621289842063561e-05;0.0;0.0;0.0;7.621289842063561e-05;0.0;0.0;0.0;7.621289842063561e-05,3.999999975690116e-08;0.0;0.0;0.0;3.999999975690116e-08;0.0;0.0;0.0;3.999999975690116e-08
26,440000000,26.44,imu_link,0.0006534653164704729,-0.008683946203658276,0.003314340272104449,0.00017479512646132285,0.0001684847016842848,9.800006987462591,-4.6155707944612273e-10,5.3304847850365235e-08,-4.989105560404481e-08,0.9999999999999973,0.0;0.0;0.0;0.0;0.0;0.0;0.0;0.0;0.0,7.621289842063561e-05;0.0;0.0;0.0;7.621289842063561e-05;0.0;0.0;0.0;7.621289842063561e-05,3.999999975690116e-08;0.0;0.0;0.0;3.999999975690116e-08;0.0;0.0;0.0;3.999999975690116e-08
26,460000000,26.46,imu_link,-0.004007024781707245,0.008687644013655647,-0.006200323851712981,6.920166232903463e-05,-7.142489205778921e-05,9.800036132090979,-4.6155707943767686e-10,5.330484785071478e-08,-4.989105560405917e-08,0.9999999999999973,0.0;0.0;0.0;0.0;0.0;0.0;0.0;0.0;0.0,7.621289842063561e-05;0.0;0.0;0.0;7.621289842063561e-05;0.0;0.0;0.0;7.621289842063561e-05,3.999999975690116e-08;0.0;0.0;0.0;3.999999975690116e-08;0.0;0.0;0.0;3.999999975690116e-08
26,480000000,26.48,imu_link,0.008166975952776155,0.004586665377284442,-0.00216417703756132,-0.0001479562528067878,3.1820434766431695e-05,9.800121366828078,-4.6155707945468824e-10,5.3304847850879245e-08,-4.989105560407341e-08,0.9999999999999973,0.0;0.0;0.0;0.0;0.0;0.0;0.0;0.0;0.0,7.621289842063561e-05;0.0;0.0;0.0;7.621289842063561e-05;0.0;0.0;0.0;7.621289842063561e-05,3.999999975690116e-08;0.0;0.0;0.0;3.999999975690116e-08;0.0;0.0;0.0;3.999999975690116e-08
26,500000000,26.5,imu_link,-0.0263619250209804,-0.004360350395772771,0.01011483685058366,0.0002938496893061499,0.00013421563207497388,9.800076430587234,-4.6155707952541213e-10,5.330484785041537e-08,-4.9891055604085555e-08,0.9999999999999973,0.0;0.0;0.0;0.0;0.0;0.0;0.0;0.0;0.0,7.621289842063561e-05;0.0;0.0;0.0;7.621289842063561e-05;0.0;0.0;0.0;7.621289842063561e-05,3.999999975690116e-08;0.0;0.0;0.0;3.999999975690116e-08;0.0;0.0;0.0;3.999999975690116e-08
26,520000000,26.52,imu_link,-0.003956734886415773,-0.01337008066080539,-0.0017389551239852565,-0.00012843330709859702,7.771298554064867e-05,9.799823334071824,-4.615570795692446e-10,5.3304847850600386e-08,-4.989105560409659e-08,0.9999999999999973,0.0;0.0;0.0;0.0;0.0;0.0;0.0;0.0;0.0,7.621289842063561e-05;0.0;0.0;0.0;7.621289842063561e-05;0.0;0.0;0.0;7.621289842063561e-05,3.999999975690116e-08;0.0;0.0;0.0;3.999999975690116e-08;0.0;0.0;0.0;3.999999975690116e-08
26,540000000,26.54,imu_link,0.00473873348096055,0.00586068568623809,-0.006387028826472283,1.9391400601306608e-05,0.00031879373063863596,9.799875499524095,-4.6155707935474843e-10,5.330484785071957e-08,-4.989105560410996e-08,0.9999999999999973,0.0;0.0;0.0;0.0;0.0;0.0;0.0;0.0;0.0,7.621289842063561e-05;0.0;0.0;0.0;7.621289842063561e-05;0.0;0.0;0.0;7.621289842063561e-05,3.999999975690116e-08;0.0;0.0;0.0;3.999999975690116e-08;0.0;0.0;0.0;3.999999975690116e-08
26,560000000,26.56,imu_link,0.008295160755173591,-0.001348125887417895,0.0028701454796407773,-6.836890560551398e-05,2.0074166032160837e-05,9.800166256535695,-4.6155707941356645e-10,5.330484785025228e-08,-4.989105560412268e-08,0.9999999999999973,0.0;0.0;0.0;0.0;0.0;0.0;0.0;0.0;0.0,7.621289842063561e-05;0.0;0.0;0.0;7.621289842063561e-05;0.0;0.0;0.0;7.621289842063561e-05,3.999999975690116e-08;0.0;0.0;0.0;3.999999975690116e-08;0.0;0.0;0.0;3.999999975690116e-08
26,580000000,26.58,imu_link,0.005839376881042519,0.0029110268969763536,0.004600959377867725,-0.0002323777235566793,0.0003737836474011082,9.800121017722393,-4.61557079412453e-10,5.3304847850610153e-08,-4.9891055604133896e-08,0.9999999999999973,0.0;0.0;0.0;0.0;0.0;0.0;0.0;0.0;0.0,7.621289842063561e-05;0.0;0.0;0.0;7.621289842063561e-05;0.0;0.0;0.0;7.621289842063561e-05,3.999999975690116e-08;0.0;0.0;0.0;3.999999975690116e-08;0.0;0.0;0.0;3.999999975690116e-08
26,600000000,26.6,imu_link,0.004760308742955894,0.0035521135549105983,0.0098596211404547,-2.05507351310167e-05,2.8324350042973755e-05,9.799433887314704,-4.6155707944827573e-10,5.3304847850775146e-08,-4.989105560414905e-08,0.9999999999999973,0.0;0.0;0.0;0.0;0.0;0.0;0.0;0.0;0.0,7.621289842063561e-05;0.0;0.0;0.0;7.621289842063561e-05;0.0;0.0;0.0;7.621289842063561e-05,3.999999975690116e-08;0.0;0.0;0.0;3.999999975690116e-08;0.0;0.0;0.0;3.999999975690116e-08
26,620000000,26.62,imu_link,-0.011461833373043961,-0.010276572327259759,-0.003373689859506538,0.00018393895825667234,-0.00030500990929154106,9.799869286847946,-4.615570793649218e-10,5.3304847850889264e-08,-4.989105560416353e-08,0.9999999999999973,0.0;0.0;0.0;0.0;0.0;0.0;0.0;0.0;0.0,7.621289842063561e-05;0.0;0.0;0.0;7.621289842063561e-05;0.0;0.0;0.0;7.621289842063561e-05,3.999999975690116e-08;0.0;0.0;0.0;3.999999975690116e-08;0.0;0.0;0.0;3.999999975690116e-08
26,640000000,26.64,imu_link,-0.014901137780915468,-0.005856213577652164,0.015122891617965558,-9.40043119374595e-06,0.00017079442588810304,9.79988911748875,-4.615570794400514e-10,5.3304847850420795e-08,-4.9891055604176664e-08,0.9999999999999973,0.0;0.0;0.0;0.0;0.0;0.0;0.0;0.0;0.0,7.621289842063561e-05;0.0;0.0;0.0;7.621289842063561e-05;0.0;0.0;0.0;7.621289842063561e-05,3.999999975690116e-08;0.0;0.0;0.0;3.999999975690116e-08;0.0;0.0;0.0;3.999999975690116e-08
26,660000000,26.66,imu_link,0.015360439571326412,0.009172839978435347,0.00013437549932426805,0.0002846297713997307,0.0001305422223430171,9.800044892237722,-4.615570795941297e-10,5.330484785059514e-08,-4.9891055604192487e-08,0.9999999999999973,0.0;0.0;0.0;0.0;0.0;0.0;0.0;0.0;0.0,7.621289842063561e-05;0.0;0.0;0.0;7.621289842063561e-05;0.0;0.0;0.0;7.621289842063561e-05,3.999999975690116e-08;0.0;0.0;0.0;3.999999975690116e-08;0.0;0.0;0.0;3.999999975690116e-08
26,680000000,26.68,imu_link,-0.011997648108013738,-0.009771603423423494,-0.007665769940579032,0.0004762601686317443,-0.0001684282913748227,9.799654060440687,-4.6155707936856716e-10,5.3304847850260415e-08,-4.9891055604206456e-08,0.9999999999999973,0.0;0.0;0.0;0.0;0.0;0.0;0.0;0.0;0.0,7.621289842063561e-05;0.0;0.0;0.0;7.621289842063561e-05;0.0;0.0;0.0;7.621289842063561e-05,3.999999975690116e-08;0.0;0.0;0.0;3.999999975690116e-08;0.0;0.0;0.0;3.999999975690116e-08
26,700000000,26.7,imu_link,0.011943957105843506,0.0007366827285695589,-0.003877208900612809,2.4378671159937213e-05,6.674632516805715e-05,9.7997182604662,-4.6155707940618444e-10,5.330484785044384e-08,-4.9891055604220604e-08,0.9999999999999973,0.0;0.0;0.0;0.0;0.0;0.0;0.0;0.0;0.0,7.621289842063561e-05;0.0;0.0;0.0;7.621289842063561e-05;0.0;0.0;0.0;7.621289842063561e-05,3.999999975690116e-08;0.0;0.0;0.0;3.999999975690116e-08;0.0;0.0;0.0;3.999999975690116e-08
26,720000000,26.72,imu_link,-0.005970480381779468,0.004422283481301993,-0.0006360713260726787,0.00036357538446907955,-0.00021591325440141864,9.799870229363904,-4.615570794349426e-10,5.3304847850620166e-08,-4.989105560423567e-08,0.9999999999999973,0.0;0.0;0.0;0.0;0.0;0.0;0.0;0.0;0.0,7.621289842063561e-05;0.0;0.0;0.0;7.621289842063561e-05;0.0;0.0;0.0;7.621289842063561e-05,3.999999975690116e-08;0.0;0.0;0.0;3.999999975690116e-08;0.0;0.0;0.0;3.999999975690116e-08
26,740000000,26.74,imu_link,0.0017021547073925569,0.003179360140588425,-0.012497909845498352,-0.0002430359226182394,0.0003833426095176393,9.799667812133372,-4.6155707947415723e-10,5.330484785078787e-08,-4.989105560425247e-08,0.9999999999999973,0.0;0.0;0.0;0.0;0.0;0.0;0.0;0.0;0.0,7.621289842063561e-05;0.0;0.0;0.0;7.621289842063561e-05;0.0;0.0;0.0;7.621289842063561e-05,3.999999975690116e-08;0.0;0.0;0.0;3.999999975690116e-08;0.0;0.0;0.0;3.999999975690116e-08
26,760000000,26.76,imu_link,0.004387657538229836,0.004746435349309242,-0.001970616362239047,0.0003504272300201756,-7.185231103679229e-05,9.799734759216133,-4.615570793931129e-10,5.3304847850787216e-08,-4.9891055604267614e-08,0.9999999999999973,0.0;0.0;0.0;0.0;0.0;0.0;0.0;0.0;0.0,7.621289842063561e-05;0.0;0.0;0.0;7.621289842063561e-05;0.0;0.0;0.0;7.621289842063561e-05,3.999999975690116e-08;0.0;0.0;0.0;3.999999975690116e-08;0.0;0.0;0.0;3.999999975690116e-08
26,780000000,26.78,imu_link,-0.010133367433497378,-0.0023468989948792567,-0.004495105472417895,-0.0005871955538402866,0.00037418021380433025,9.80005391569309,-4.615570794237225e-10,5.3304847850493475e-08,-4.9891055604284046e-08,0.9999999999999973,0.0;0.0;0.0;0.0;0.0;0.0;0.0;0.0;0.0,7.621289842063561e-05;0.0;0.0;0.0;7.621289842063561e-05;0.0;0.0;0.0;7.621289842063561e-05,3.999999975690116e-08;0.0;0.0;0.0;3.999999975690116e-08;0.0;0.0;0.0;3.999999975690116e-08
26,800000000,26.8,imu_link,0.006093716647784569,-0.002154886458184142,-0.001152891467858532,0.00023303171578546389,-0.0003225726594226607,9.799830557917959,-4.615570795864062e-10,5.3304847850662345e-08,-4.9891055604300404e-08,0.9999999999999973,0.0;0.0;0.0;0.0;0.0;0.0;0.0;0.0;0.0,7.621289842063561e-05;0.0;0.0;0.0;7.621289842063561e-05;0.0;0.0;0.0;7.621289842063561e-05,3.999999975690116e-08;0.0;0.0;0.0;3.999999975690116e-08;0.0;0.0;0.0;3.999999975690116e-08
26,820000000,26.82,imu_link,0.005648270161986678,-0.011115505229024825,-0.005038288671658314,0.00029596212692416235,0.00015662395746724635,9.799948221048986,-4.6155707938102057e-10,5.3304847850328224e-08,-4.989105560431764e-08,0.9999999999999973,0.0;0.0;0.0;0.0;0.0;0.0;0.0;0.0;0.0,7.621289842063561e-05;0.0;0.0;0.0;7.621289842063561e-05;0.0;0.0;0.0;7.621289842063561e-05,3.999999975690116e-08;0.0;0.0;0.0;3.999999975690116e-08;0.0;0.0;0.0;3.999999975690116e-08
26,840000000,26.84,imu_link,0.004486884576798548,-0.003238167954312925,0.00045057428893560084,0.00024221239867810524,0.0001781986044447594,9.799986539973695,-4.615570794173131e-10,5.330484785049749e-08,-4.9891055604334576e-08,0.9999999999999973,0.0;0.0;0.0;0.0;0.0;0.0;0.0;0.0;0.0,7.621289842063561e-05;0.0;0.0;0.0;7.621289842063561e-05;0.0;0.0;0.0;7.621289842063561e-05,3.999999975690116e-08;0.0;0.0;0.0;3.999999975690116e-08;0.0;0.0;0.0;3.999999975690116e-08
26,860000000,26.86,imu_link,0.013164114141561777,0.011731018242886675,0.0008097070029901049,-9.429276733291886e-05,0.00011999512434985004,9.800094716745251,-4.615570794315803e-10,5.3304847850665105e-08,-4.989105560435182e-08,0.9999999999999973,0.0;0.0;0.0;0.0;0.0;0.0;0.0;0.0;0.0,7.621289842063561e-05;0.0;0.0;0.0;7.621289842063561e-05;0.0;0.0;0.0;7.621289842063561e-05,3.999999975690116e-08;0.0;0.0;0.0;3.999999975690116e-08;0.0;0.0;0.0;3.999999975690116e-08
26,880000000,26.88,imu_link,0.012364888827546721,0.0033711167908306435,-0.0004462875111275197,0.00021132047121210268,9.61459476565097e-05,9.799346368952436,-4.615570794785551e-10,5.33048478508454e-08,-4.9891055604369205e-08,0.9999999999999973,0.0;0.0;0.0;0.0;0.0;0.0;0.0;0.0;0.0,7.621289842063561e-05;0.0;0.0;0.0;7.621289842063561e-05;0.0;0.0;0.0;7.621289842063561e-05,3.999999975690116e-08;0.0;0.0;0.0;3.999999975690116e-08;0.0;0.0;0.0;3.999999975690116e-08
26,900000000,26.9,imu_link,0.0025918818064652738,0.004736215239227236,-0.0045908552792821725,5.3246466597201284e-05,2.7181613165299645e-05,9.800173975935472,-4.6155707953637884e-10,5.3304847850375254e-08,-4.9891055604385405e-08,0.9999999999999973,0.0;0.0;0.0;0.0;0.0;0.0;0.0;0.0;0.0,7.621289842063561e-05;0.0;0.0;0.0;7.621289842063561e-05;0.0;0.0;0.0;7.621289842063561e-05,3.999999975690116e-08;0.0;0.0;0.0;3.999999975690116e-08;0.0;0.0;0.0;3.999999975690116e-08
26,920000000,26.92,imu_link,0.01331097135432667,0.002166655928493396,-0.001234633434281554,2.0179497521279137e-06,0.00010479877476983776,9.79976577080082,-4.615570795748954e-10,5.3304847850429504e-08,-4.989105560440336e-08,0.9999999999999973,0.0;0.0;0.0;0.0;0.0;0.0;0.0;0.0;0.0,7.621289842063561e-05;0.0;0.0;0.0;7.621289842063561e-05;0.0;0.0;0.0;7.621289842063561e-05,3.999999975690116e-08;0.0;0.0;0.0;3.999999975690116e-08;0.0;0.0;0.0;3.999999975690116e-08
26,940000000,26.94,imu_link,-0.004448778431121349,-0.0008758004424045802,-0.009418948952881468,0.00019011888979200594,5.674142846197925e-05,9.799707348536058,-4.615570796037975e-10,5.330484785061808e-08,-4.989105560442159e-08,0.9999999999999973,0.0;0.0;0.0;0.0;0.0;0.0;0.0;0.0;0.0,7.621289842063561e-05;0.0;0.0;0.0;7.621289842063561e-05;0.0;0.0;0.0;7.621289842063561e-05,3.999999975690116e-08;0.0;0.0;0.0;3.999999975690116e-08;0.0;0.0;0.0;3.999999975690116e-08
26,960000000,26.96,imu_link,0.002494168262601387,-0.0025282930760133957,-0.005689746418276044,0.00041458372775863585,0.00035202517501909747,9.799654858922743,-4.615570795326421e-10,5.3304847850269825e-08,-4.989105560444104e-08,0.9999999999999973,0.0;0.0;0.0;0.0;0.0;0.0;0.0;0.0;0.0,7.621289842063561e-05;0.0;0.0;0.0;7.621289842063561e-05;0.0;0.0;0.0;7.621289842063561e-05,3.999999975690116e-08;0.0;0.0;0.0;3.999999975690116e-08;0.0;0.0;0.0;3.999999975690116e-08
26,980000000,26.98,imu_link,0.005723687601009877,-0.007917929337192204,-0.001545059411632719,-5.262029889686389e-05,0.00012536474365134736,9.799994157859036,-4.615570794650921e-10,5.33048478502775e-08,-4.989105560446061e-08,0.9999999999999973,0.0;0.0;0.0;0.0;0.0;0.0;0.0;0.0;0.0,7.621289842063561e-05;0.0;0.0;0.0;7.621289842063561e-05;0.0;0.0;0.0;7.621289842063561e-05,3.999999975690116e-08;0.0;0.0;0.0;3.999999975690116e-08;0.0;0.0;0.0;3.999999975690116e-08
27,0,27.0,imu_link,-0.009247833506398748,0.022001589242945208,-0.008279723728312554,0.00011260801015050486,-0.0002551237582833048,9.799988236756214,-4.6155707947036605e-10,5.330484785065173e-08,-4.9891055604476607e-08,0.9999999999999973,0.0;0.0;0.0;0.0;0.0;0.0;0.0;0.0;0.0,7.621289842063561e-05;0.0;0.0;0.0;7.621289842063561e-05;0.0;0.0;0.0;7.621289842063561e-05,3.999999975690116e-08;0.0;0.0;0.0;3.999999975690116e-08;0.0;0.0;0.0;3.999999975690116e-08
27,20000000,27.02,imu_link,-0.008067337583524296,0.020679409732742987,0.006722227571241614,0.0003753191338019128,0.000368462933725507,9.799916486598235,-4.6155707938615715e-10,5.330484785077516e-08,-4.9891055604495427e-08,0.9999999999999973,0.0;0.0;0.0;0.0;0.0;0.0;0.0;0.0;0.0,7.621289842063561e-05;0.0;0.0;0.0;7.621289842063561e-05;0.0;0.0;0.0;7.621289842063561e-05,3.999999975690116e-08;0.0;0.0;0.0;3.999999975690116e-08;0.0;0.0;0.0;3.999999975690116e-08
27,40000000,27.04,imu_link,-0.015511163759799794,0.004166989871450001,0.0010580577884207925,0.0001700920553541791,0.0001650485958487306,9.7999162886109,-4.615570794240749e-10,5.3304847850482344e-08,-4.989105560451241e-08,0.9999999999999973,0.0;0.0;0.0;0.0;0.0;0.0;0.0;0.0;0.0,7.621289842063561e-05;0.0;0.0;0.0;7.621289842063561e-05;0.0;0.0;0.0;7.621289842063561e-05,3.999999975690116e-08;0.0;0.0;0.0;3.999999975690116e-08;0.0;0.0;0.0;3.999999975690116e-08
27,60000000,27.06,imu_link,0.008261364932139496,-0.01367782201240834,-0.016259475019549437,0.00026218664809147515,-2.448995782195187e-06,9.79990259638704,-4.615570794510723e-10,5.3304847850644955e-08,-4.9891055604530545e-08,0.9999999999999973,0.0;0.0;0.0;0.0;0.0;0.0;0.0;0.0;0.0,7.621289842063561e-05;0.0;0.0;0.0;7.621289842063561e-05;0.0;0.0;0.0;7.621289842063561e-05,3.999999975690116e-08;0.0;0.0;0.0;3.999999975690116e-08;0.0;0.0;0.0;3.999999975690116e-08
27,80000000,27.08,imu_link,-4.853191526052134e-05,0.005765266649088813,0.01372856327069356,7.75874454477909e-06,1.6289333094072296e-05,9.799878437675172,-4.6155707947951855e-10,5.3304847850824565e-08,-4.989105560454799e-08,0.9999999999999973,0.0;0.0;0.0;0.0;0.0;0.0;0.0;0.0;0.0,7.621289842063561e-05;0.0;0.0;0.0;7.621289842063561e-05;0.0;0.0;0.0;7.621289842063561e-05,3.999999975690116e-08;0.0;0.0;0.0;3.999999975690116e-08;0.0;0.0;0.0;3.999999975690116e-08
27,100000000,27.1,imu_link,-0.01697453968602257,0.00017852299562213744,-0.0008517021427395988,0.00013399724589948812,-7.82718594351433e-05,9.800083862730718,-4.6155707954130144e-10,5.330484785034228e-08,-4.989105560456448e-08,0.9999999999999973,0.0;0.0;0.0;0.0;0.0;0.0;0.0;0.0;0.0,7.621289842063561e-05;0.0;0.0;0.0;7.621289842063561e-05;0.0;0.0;0.0;7.621289842063561e-05,3.999999975690116e-08;0.0;0.0;0.0;3.999999975690116e-08;0.0;0.0;0.0;3.999999975690116e-08
27,120000000,27.12,imu_link,-0.01915312408074266,-0.0021949228440487235,-0.005392486242282673,-0.00014190322786146052,8.952131361269568e-05,9.7998145564269,-4.615570795704428e-10,5.33048478505236e-08,-4.989105560458194e-08,0.9999999999999973,0.0;0.0;0.0;0.0;0.0;0.0;0.0;0.0;0.0,7.621289842063561e-05;0.0;0.0;0.0;7.621289842063561e-05;0.0;0.0;0.0;7.621289842063561e-05,3.999999975690116e-08;0.0;0.0;0.0;3.999999975690116e-08;0.0;0.0;0.0;3.999999975690116e-08
27,140000000,27.14,imu_link,0.004738814674555653,0.006509255229544801,-0.015760203242770433,-0.0002296091734934243,-3.9026807127313636e-05,9.799810695432482,-4.615570796022951e-10,5.330484785069157e-08,-4.9891055604600995e-08,0.9999999999999973,0.0;0.0;0.0;0.0;0.0;0.0;0.0;0.0;0.0,7.621289842063561e-05;0.0;0.0;0.0;7.621289842063561e-05;0.0;0.0;0.0;7.621289842063561e-05,3.999999975690116e-08;0.0;0.0;0.0;3.999999975690116e-08;0.0;0.0;0.0;3.999999975690116e-08
27,160000000,27.16,imu_link,0.010092049689864352,0.0015471823568190427,0.006871573996116033,0.0004342481136725654,-0.00028904921088644534,9.799791008121655,-4.615570793848916e-10,5.3304847850361754e-08,-4.989105560461734e-08,0.9999999999999973,0.0;0.0;0.0;0.0;0.0;0.0;0.0;0.0;0.0,7.621289842063561e-05;0.0;0.0;0.0;7.621289842063561e-05;0.0;0.0;0.0;7.621289842063561e-05,3.999999975690116e-08;0.0;0.0;0.0;3.999999975690116e-08;0.0;0.0;0.0;3.999999975690116e-08
27,180000000,27.18,imu_link,0.009343009525251439,-0.005537750630476281,0.004674930450261864,3.9052572075349675e-05,-2.1714392621882897e-05,9.79968190166869,-4.6155707942565177e-10,5.33048478505416e-08,-4.989105560463396e-08,0.9999999999999973,0.0;0.0;0.0;0.0;0.0;0.0;0.0;0.0;0.0,7.621289842063561e-05;0.0;0.0;0.0;7.621289842063561e-05;0.0;0.0;0.0;7.621289842063561e-05,3.999999975690116e-08;0.0;0.0;0.0;3.999999975690116e-08;0.0;0.0;0.0;3.999999975690116e-08
27,200000000,27.2,imu_link,0.007068249318317266,0.00017238772328833558,0.01087534462991936,8.839098851129987e-07,0.00019571010420275296,9.799767027228269,-4.6155707947078176e-10,5.330484785070157e-08,-4.989105560465326e-08,0.9999999999999973,0.0;0.0;0.0;0.0;0.0;0.0;0.0;0.0;0.0,7.621289842063561e-05;0.0;0.0;0.0;7.621289842063561e-05;0.0;0.0;0.0;7.621289842063561e-05,3.999999975690116e-08;0.0;0.0;0.0;3.999999975690116e-08;0.0;0.0;0.0;3.999999975690116e-08
27,220000000,27.22,imu_link,0.005189838413071858,-0.011409544639242857,0.010732883827853881,9.876802164375875e-05,0.00022156180245100595,9.799748237823021,-4.6155707950294017e-10,5.330484785087962e-08,-4.9891055604671245e-08,0.9999999999999973,0.0;0.0;0.0;0.0;0.0;0.0;0.0;0.0;0.0,7.621289842063561e-05;0.0;0.0;0.0;7.621289842063561e-05;0.0;0.0;0.0;7.621289842063561e-05,3.999999975690116e-08;0.0;0.0;0.0;3.999999975690116e-08;0.0;0.0;0.0;3.999999975690116e-08
27,240000000,27.24,imu_link,0.011159950385118331,-0.0014825394289586086,-0.018038695892468704,-0.00011481555072345369,-0.00017396425611950565,9.79996404823352,-4.6155707957016033e-10,5.3304847850405754e-08,-4.9891055604689126e-08,0.9999999999999973,0.0;0.0;0.0;0.0;0.0;0.0;0.0;0.0;0.0,7.621289842063561e-05;0.0;0.0;0.0;7.621289842063561e-05;0.0;0.0;0.0;7.621289842063561e-05,3.999999975690116e-08;0.0;0.0;0.0;3.999999975690116e-08;0.0;0.0;0.0;3.999999975690116e-08
27,260000000,27.26,imu_link,0.008348997400717978,0.00871810094827129,-0.0031970255762198323,0.00031211736719321913,0.00033750903209039636,9.800260882611195,-4.6155707960985285e-10,5.330484785058789e-08,-4.989105560470563e-08,0.9999999999999973,0.0;0.0;0.0;0.0;0.0;0.0;0.0;0.0;0.0,7.621289842063561e-05;0.0;0.0;0.0;7.621289842063561e-05;0.0;0.0;0.0;7.621289842063561e-05,3.999999975690116e-08;0.0;0.0;0.0;3.999999975690116e-08;0.0;0.0;0.0;3.999999975690116e-08
27,280000000,27.28,imu_link,-0.0015150844684081873,-0.00987278616582439,-0.00020187841570609746,6.110885027568668e-06,-0.00010300856175478914,9.800043633454704,-4.615570794008263e-10,5.330484785071396e-08,-4.9891055604721565e-08,0.9999999999999973,0.0;0.0;0.0;0.0;0.0;0.0;0.0;0.0;0.0,7.621289842063561e-05;0.0;0.0;0.0;7.621289842063561e-05;0.0;0.0;0.0;7.621289842063561e-05,3.999999975690116e-08;0.0;0.0;0.0;3.999999975690116e-08;0.0;0.0;0.0;3.999999975690116e-08
27,300000000,27.3,imu_link,-0.014518763851844895,-0.00494374507648255,-0.004193237944859107,-8.045801306612532e-05,5.832903332077164e-05,9.799689039430538,-4.61557079441677e-10,5.330484785088542e-08,-4.989105560473967e-08,0.9999999999999973,0.0;0.0;0.0;0.0;0.0;0.0;0.0;0.0;0.0,7.621289842063561e-05;0.0;0.0;0.0;7.621289842063561e-05;0.0;0.0;0.0;7.621289842063561e-05,3.999999975690116e-08;0.0;0.0;0.0;3.999999975690116e-08;0.0;0.0;0.0;3.999999975690116e-08
27,320000000,27.32,imu_link,0.009483935892942332,-0.006005955291136877,-0.0025185049159526015,0.00020638490551903404,-7.200579669177661e-05,9.800015722341199,-4.6155707937336615e-10,5.330484785042967e-08,-4.989105560475535e-08,0.9999999999999973,0.0;0.0;0.0;0.0;0.0;0.0;0.0;0.0;0.0,7.621289842063561e-05;0.0;0.0;0.0;7.621289842063561e-05;0.0;0.0;0.0;7.621289842063561e-05,3.999999975690116e-08;0.0;0.0;0.0;3.999999975690116e-08;0.0;0.0;0.0;3.999999975690116e-08
27,340000000,27.34,imu_link,0.00014473696360194367,0.007368572841344728,0.0034171118235480037,0.0001417736242907823,0.00019477873305002172,9.799944502903672,-4.615570795384904e-10,5.330484785060151e-08,-4.989105560477264e-08,0.9999999999999973,0.0;0.0;0.0;0.0;0.0;0.0;0.0;0.0;0.0,7.621289842063561e-05;0.0;0.0;0.0;7.621289842063561e-05;0.0;0.0;0.0;7.621289842063561e-05,3.999999975690116e-08;0.0;0.0;0.0;3.999999975690116e-08;0.0;0.0;0.0;3.999999975690116e-08
27,360000000,27.36,imu_link,0.01254109966416191,0.0058579784490232975,0.001945008728492902,9.673595900387703e-05,-0.00030658562677535564,9.80004726611183,-4.6155707956131136e-10,5.330484785030445e-08,-4.989105560478868e-08,0.9999999999999973,0.0;0.0;0.0;0.0;0.0;0.0;0.0;0.0;0.0,7.621289842063561e-05;0.0;0.0;0.0;7.621289842063561e-05;0.0;0.0;0.0;7.621289842063561e-05,3.999999975690116e-08;0.0;0.0;0.0;3.999999975690116e-08;0.0;0.0;0.0;3.999999975690116e-08
27,380000000,27.38,imu_link,0.007416615856689291,0.013577951914771194,0.010550225986034731,0.0002978059820551815,0.00018567559479165045,9.799814873774238,-4.61557079606554e-10,5.330484785048146e-08,-4.9891055604803085e-08,0.9999999999999973,0.0;0.0;0.0;0.0;0.0;0.0;0.0;0.0;0.0,7.621289842063561e-05;0.0;0.0;0.0;7.621289842063561e-05;0.0;0.0;0.0;7.621289842063561e-05,3.999999975690116e-08;0.0;0.0;0.0;3.999999975690116e-08;0.0;0.0;0.0;3.999999975690116e-08
27,400000000,27.4,imu_link,0.011714627131665023,-0.011021728317053245,0.0035304850393303995,7.499905791427211e-05,4.347368391458372e-05,9.800288930983953,-4.6155707939797105e-10,5.330484785060761e-08,-4.9891055604818636e-08,0.9999999999999973,0.0;0.0;0.0;0.0;0.0;0.0;0.0;0.0;0.0,7.621289842063561e-05;0.0;0.0;0.0;7.621289842063561e-05;0.0;0.0;0.0;7.621289842063561e-05,3.999999975690116e-08;0.0;0.0;0.0;3.999999975690116e-08;0.0;0.0;0.0;3.999999975690116e-08
27,420000000,27.42,imu_link,0.0023924427356802995,0.003846188337890284,-0.0038720906059384,-0.0004323106110665155,0.0002788455612727746,9.799993024516763,-4.615570794290732e-10,5.330484785077983e-08,-4.989105560483593e-08,0.9999999999999973,0.0;0.0;0.0;0.0;0.0;0.0;0.0;0.0;0.0,7.621289842063561e-05;0.0;0.0;0.0;7.621289842063561e-05;0.0;0.0;0.0;7.621289842063561e-05,3.999999975690116e-08;0.0;0.0;0.0;3.999999975690116e-08;0.0;0.0;0.0;3.999999975690116e-08
27,440000000,27.44,imu_link,-0.003134967693472871,-0.009896668409176804,-0.0002577037916722522,0.0005144710522583541,3.112693981382922e-05,9.799852238756985,-4.615570794826452e-10,5.330484785030939e-08,-4.9891055604851716e-08,0.9999999999999973,0.0;0.0;0.0;0.0;0.0;0.0;0.0;0.0;0.0,7.621289842063561e-05;0.0;0.0;0.0;7.621289842063561e-05;0.0;0.0;0.0;7.621289842063561e-05,3.999999975690116e-08;0.0;0.0;0.0;3.999999975690116e-08;0.0;0.0;0.0;3.999999975690116e-08
27,460000000,27.46,imu_link,-0.004536817663203126,0.005639993505898158,-0.003445669593622501,0.0002224222059158073,-4.2382713507055185e-07,9.799732618877492,-4.61557079522564e-10,5.330484785049152e-08,-4.989105560486732e-08,0.9999999999999973,0.0;0.0;0.0;0.0;0.0;0.0;0.0;0.0;0.0,7.621289842063561e-05;0.0;0.0;0.0;7.621289842063561e-05;0.0;0.0;0.0;7.621289842063561e-05,3.999999975690116e-08;0.0;0.0;0.0;3.999999975690116e-08;0.0;0.0;0.0;3.999999975690116e-08
27,480000000,27.48,imu_link,0.01148248022327384,0.002455198815025237,0.0006923149804977938,0.00024205095448964626,0.0003732273930293845,9.799775091275157,-4.6155707956282856e-10,5.3304847850670505e-08,-4.989105560488389e-08,0.9999999999999973,0.0;0.0;0.0;0.0;0.0;0.0;0.0;0.0;0.0,7.621289842063561e-05;0.0;0.0;0.0;7.621289842063561e-05;0.0;0.0;0.0;7.621289842063561e-05,3.999999975690116e-08;0.0;0.0;0.0;3.999999975690116e-08;0.0;0.0;0.0;3.999999975690116e-08
27,500000000,27.5,imu_link,-0.00930260545421714,-0.008891750099367646,0.00029980913759740396,-0.00022531521600324678,9.849550870259701e-05,9.800241343296696,-4.6155707968196335e-10,5.330484785090401e-08,-4.9891055604900513e-08,0.9999999999999973,0.0;0.0;0.0;0.0;0.0;0.0;0.0;0.0;0.0,7.621289842063561e-05;0.0;0.0;0.0;7.621289842063561e-05;0.0;0.0;0.0;7.621289842063561e-05,3.999999975690116e-08;0.0;0.0;0.0;3.999999975690116e-08;0.0;0.0;0.0;3.999999975690116e-08
27,520000000,27.52,imu_link,0.0046295719064614,0.013918895356006726,0.01911305168642793,8.635775635149452e-05,0.00013529896437809675,9.800084592887014,-4.615570796069579e-10,5.330484785056081e-08,-4.989105560491798e-08,0.9999999999999973,0.0;0.0;0.0;0.0;0.0;0.0;0.0;0.0;0.0,7.621289842063561e-05;0.0;0.0;0.0;7.621289842063561e-05;0.0;0.0;0.0;7.621289842063561e-05,3.999999975690116e-08;0.0;0.0;0.0;3.999999975690116e-08;0.0;0.0;0.0;3.999999975690116e-08
27,540000000,27.54,imu_link,0.0006146230612993862,0.0025454697530629387,0.0013263367742516769,0.00017174789870124925,-8.886451763884973e-05,9.799637152886486,-4.615570793901206e-10,5.3304847850575015e-08,-4.9891055604934646e-08,0.9999999999999973,0.0;0.0;0.0;0.0;0.0;0.0;0.0;0.0;0.0,7.621289842063561e-05;0.0;0.0;0.0;7.621289842063561e-05;0.0;0.0;0.0;7.621289842063561e-05,3.999999975690116e-08;0.0;0.0;0.0;3.999999975690116e-08;0.0;0.0;0.0;3.999999975690116e-08
27,560000000,27.56,imu_link,-0.0023085860521460345,-0.006106400456497298,0.005685588576107702,0.0002662515821498379,0.000499544430370771,9.800161335460917,-4.6155707956932084e-10,5.3304847850288764e-08,-4.989105560494951e-08,0.9999999999999973,0.0;0.0;0.0;0.0;0.0;0.0;0.0;0.0;0.0,7.621289842063561e-05;0.0;0.0;0.0;7.621289842063561e-05;0.0;0.0;0.0;7.621289842063561e-05,3.999999975690116e-08;0.0;0.0;0.0;3.999999975690116e-08;0.0;0.0;0.0;3.999999975690116e-08
27,580000000,27.58,imu_link,0.00166341021775484,0.0066013483455145865,-0.007761543893416076,0.000211626941060948,9.73946602371876e-05,9.80004595222403,-4.615570793989057e-10,5.330484785043087e-08,-4.989105560496263e-08,0.9999999999999973,0.0;0.0;0.0;0.0;0.0;0.0;0.0;0.0;0.0,7.621289842063561e-05;0.0;0.0;0.0;7.621289842063561e-05;0.0;0.0;0.0;7.621289842063561e-05,3.999999975690116e-08;0.0;0.0;0.0;3.999999975690116e-08;0.0;0.0;0.0;3.999999975690116e-08
27,600000000,27.6,imu_link,0.002721604550563012,0.00475550629441417,-0.00597042582927882,0.0001086810693857522,-8.950867624686383e-05,9.800016099428571,-4.6155707959758467e-10,5.3304847850487e-08,-4.9891055604978804e-08,0.9999999999999973,0.0;0.0;0.0;0.0;0.0;0.0;0.0;0.0;0.0,7.621289842063561e-05;0.0;0.0;0.0;7.621289842063561e-05;0.0;0.0;0.0;7.621289842063561e-05,3.999999975690116e-08;0.0;0.0;0.0;3.999999975690116e-08;0.0;0.0;0.0;3.999999975690116e-08
27,620000000,27.62,imu_link,-0.006748228739010521,0.005549330752406922,0.003737760477639964,-7.931969627271893e-05,0.00030643835172614514,9.799756497976333,-4.6155707964459914e-10,5.3304847850680245e-08,-4.9891055604993806e-08,0.9999999999999973,0.0;0.0;0.0;0.0;0.0;0.0;0.0;0.0;0.0,7.621289842063561e-05;0.0;0.0;0.0;7.621289842063561e-05;0.0;0.0;0.0;7.621289842063561e-05,3.999999975690116e-08;0.0;0.0;0.0;3.999999975690116e-08;0.0;0.0;0.0;3.999999975690116e-08
27,640000000,27.64,imu_link,0.015110961458431334,0.01996640370594375,-0.005835048664906173,-5.458883518628843e-05,-3.194782758471611e-05,9.799611925951792,-4.615570795938391e-10,5.330484785034969e-08,-4.989105560500818e-08,0.9999999999999973,0.0;0.0;0.0;0.0;0.0;0.0;0.0;0.0;0.0,7.621289842063561e-05;0.0;0.0;0.0;7.621289842063561e-05;0.0;0.0;0.0;7.621289842063561e-05,3.999999975690116e-08;0.0;0.0;0.0;3.999999975690116e-08;0.0;0.0;0.0;3.999999975690116e-08
27,660000000,27.66,imu_link,-0.00447288817596732,0.004853600137859165,-0.0019094096529524188,-0.00020197812573181063,0.0003140930678257581,9.799897838380707,-4.615570795537325e-10,5.330484785047197e-08,-4.989105560502406e-08,0.9999999999999973,0.0;0.0;0.0;0.0;0.0;0.0;0.0;0.0;0.0,7.621289842063561e-05;0.0;0.0;0.0;7.621289842063561e-05;0.0;0.0;0.0;7.621289842063561e-05,3.999999975690116e-08;0.0;0.0;0.0;3.999999975690116e-08;0.0;0.0;0.0;3.999999975690116e-08
27,680000000,27.68,imu_link,0.0010125236687803226,-0.003059303400857871,-0.006380518945871561,-5.1091290118363756e-05,0.000383865924454317,9.800062577962773,-4.615570793749365e-10,5.330484785060325e-08,-4.9891055605038725e-08,0.9999999999999973,0.0;0.0;0.0;0.0;0.0;0.0;0.0;0.0;0.0,7.621289842063561e-05;0.0;0.0;0.0;7.621289842063561e-05;0.0;0.0;0.0;7.621289842063561e-05,3.999999975690116e-08;0.0;0.0;0.0;3.999999975690116e-08;0.0;0.0;0.0;3.999999975690116e-08
27,700000000,27.7,imu_link,0.018857817505134763,0.002829507595287763,-0.004280543223670736,3.6215268499319205e-05,0.0003411446247172315,9.799858864354277,-4.615570795772714e-10,5.3304847850305294e-08,-4.9891055605051715e-08,0.9999999999999973,0.0;0.0;0.0;0.0;0.0;0.0;0.0;0.0;0.0,7.621289842063561e-05;0.0;0.0;0.0;7.621289842063561e-05;0.0;0.0;0.0;7.621289842063561e-05,3.999999975690116e-08;0.0;0.0;0.0;3.999999975690116e-08;0.0;0.0;0.0;3.999999975690116e-08
27,720000000,27.72,imu_link,0.02020105016560913,0.005365998811115573,-0.002193457128178957,-0.0001346398458285946,-9.142664086027232e-07,9.800003670972396,-4.61557079394587e-10,5.330484785043519e-08,-4.9891055605063475e-08,0.9999999999999973,0.0;0.0;0.0;0.0;0.0;0.0;0.0;0.0;0.0,7.621289842063561e-05;0.0;0.0;0.0;7.621289842063561e-05;0.0;0.0;0.0;7.621289842063561e-05,3.999999975690116e-08;0.0;0.0;0.0;3.999999975690116e-08;0.0;0.0;0.0;3.999999975690116e-08
27,740000000,27.74,imu_link,-0.0055826951025752195,0.0017079935713509788,0.005311474026258984,-0.00027344443674010715,9.090950453942477e-05,9.80001429437448,-4.6155707958925527e-10,5.330484785060166e-08,-4.9891055605078046e-08,0.9999999999999973,0.0;0.0;0.0;0.0;0.0;0.0;0.0;0.0;0.0,7.621289842063561e-05;0.0;0.0;0.0;7.621289842063561e-05;0.0;0.0;0.0;7.621289842063561e-05,3.999999975690116e-08;0.0;0.0;0.0;3.999999975690116e-08;0.0;0.0;0.0;3.999999975690116e-08
27,760000000,27.76,imu_link,-0.00508786011853976,-0.01729930883183969,-0.0021058839277242826,0.00016578319696543205,0.00011898613232306467,9.799656842363206,-4.6155707938219516e-10,5.330484785073286e-08,-4.98910556050903e-08,0.9999999999999973,0.0;0.0;0.0;0.0;0.0;0.0;0.0;0.0;0.0,7.621289842063561e-05;0.0;0.0;0.0;7.621289842063561e-05;0.0;0.0;0.0;7.621289842063561e-05,3.999999975690116e-08;0.0;0.0;0.0;3.999999975690116e-08;0.0;0.0;0.0;3.999999975690116e-08
27,780000000,27.78,imu_link,-0.00190297699541965,-0.001016756157541761,-0.002584068839772413,-3.1142542985239204e-05,0.00013732666306826786,9.799831087517264,-4.6155707946431305e-10,5.330484785025939e-08,-4.98910556051035e-08,0.9999999999999973,0.0;0.0;0.0;0.0;0.0;0.0;0.0;0.0;0.0,7.621289842063561e-05;0.0;0.0;0.0;7.621289842063561e-05;0.0;0.0;0.0;7.621289842063561e-05,3.999999975690116e-08;0.0;0.0;0.0;3.999999975690116e-08;0.0;0.0;0.0;3.999999975690116e-08
27,800000000,27.8,imu_link,-0.012177180784746985,-0.007622283232951346,0.012611827589980267,-0.00022249694669087335,0.0002645739900450091,9.799999805283642,-4.615570795121667e-10,5.330484785044584e-08,-4.989105560511443e-08,0.9999999999999973,0.0;0.0;0.0;0.0;0.0;0.0;0.0;0.0;0.0,7.621289842063561e-05;0.0;0.0;0.0;7.621289842063561e-05;0.0;0.0;0.0;7.621289842063561e-05,3.999999975690116e-08;0.0;0.0;0.0;3.999999975690116e-08;0.0;0.0;0.0;3.999999975690116e-08
27,820000000,27.82,imu_link,-0.005188144955447969,0.002528361834513928,0.011958498722769339,0.00021939387420455886,0.0002513504078834141,9.79996531516833,-4.615570795685874e-10,5.330484785062043e-08,-4.989105560512491e-08,0.9999999999999973,0.0;0.0;0.0;0.0;0.0;0.0;0.0;0.0;0.0,7.621289842063561e-05;0.0;0.0;0.0;7.621289842063561e-05;0.0;0.0;0.0;7.621289842063561e-05,3.999999975690116e-08;0.0;0.0;0.0;3.999999975690116e-08;0.0;0.0;0.0;3.999999975690116e-08
27,840000000,27.84,imu_link,0.020808578937414765,0.002412151258297745,0.004098617276098871,0.00037273111264753963,8.276804291219179e-05,9.799678625652716,-4.6155707951162996e-10,5.3304847850290716e-08,-4.989105560513728e-08,0.9999999999999973,0.0;0.0;0.0;0.0;0.0;0.0;0.0;0.0;0.0,7.621289842063561e-05;0.0;0.0;0.0;7.621289842063561e-05;0.0;0.0;0.0;7.621289842063561e-05,3.999999975690116e-08;0.0;0.0;0.0;3.999999975690116e-08;0.0;0.0;0.0;3.999999975690116e-08
27,860000000,27.86,imu_link,-0.010627124375185693,-0.005244836749408316,-0.00430151099144491,7.45050001685786e-05,-3.003080473872273e-05,9.800280112600728,-4.615570795777869e-10,5.330484785047806e-08,-4.989105560514718e-08,0.9999999999999973,0.0;0.0;0.0;0.0;0.0;0.0;0.0;0.0;0.0,7.621289842063561e-05;0.0;0.0;0.0;7.621289842063561e-05;0.0;0.0;0.0;7.621289842063561e-05,3.999999975690116e-08;0.0;0.0;0.0;3.999999975690116e-08;0.0;0.0;0.0;3.999999975690116e-08
27,880000000,27.88,imu_link,-0.00924855239402519,-0.0023971451141314307,0.0029617258577221773,8.104763533622876e-05,-0.0001569547714525981,9.799644601943742,-4.615570795257959e-10,5.330484785061433e-08,-4.9891055605160175e-08,0.9999999999999973,0.0;0.0;0.0;0.0;0.0;0.0;0.0;0.0;0.0,7.621289842063561e-05;0.0;0.0;0.0;7.621289842063561e-05;0.0;0.0;0.0;7.621289842063561e-05,3.999999975690116e-08;0.0;0.0;0.0;3.999999975690116e-08;0.0;0.0;0.0;3.999999975690116e-08
27,900000000,27.9,imu_link,-0.014036230234047228,0.012362050143752308,-0.0045074660399276574,0.0003021759152673001,0.0001779068156780598,9.799590441364488,-4.6155707958030906e-10,5.330484785033799e-08,-4.9891055605172795e-08,0.9999999999999973,0.0;0.0;0.0;0.0;0.0;0.0;0.0;0.0;0.0,7.621289842063561e-05;0.0;0.0;0.0;7.621289842063561e-05;0.0;0.0;0.0;7.621289842063561e-05,3.999999975690116e-08;0.0;0.0;0.0;3.999999975690116e-08;0.0;0.0;0.0;3.999999975690116e-08
27,920000000,27.92,imu_link,-0.002578572345945533,-0.011828327277040087,0.00944223056207024,-0.0002779662651438174,0.0002520044360654148,9.800310963470293,-4.615570795261239e-10,5.3304847850469017e-08,-4.989105560518608e-08,0.9999999999999973,0.0;0.0;0.0;0.0;0.0;0.0;0.0;0.0;0.0,7.621289842063561e-05;0.0;0.0;0.0;7.621289842063561e-05;0.0;0.0;0.0;7.621289842063561e-05,3.999999975690116e-08;0.0;0.0;0.0;3.999999975690116e-08;0.0;0.0;0.0;3.999999975690116e-08
27,940000000,27.94,imu_link,-0.004133903744723246,-0.005559691823574294,0.006039927300099933,0.0001744008586699321,9.610421282560038e-05,9.800022916337893,-4.6155707945871857e-10,5.3304847850674243e-08,-4.989105560519867e-08,0.9999999999999973,0.0;0.0;0.0;0.0;0.0;0.0;0.0;0.0;0.0,7.621289842063561e-05;0.0;0.0;0.0;7.621289842063561e-05;0.0;0.0;0.0;7.621289842063561e-05,3.999999975690116e-08;0.0;0.0;0.0;3.999999975690116e-08;0.0;0.0;0.0;3.999999975690116e-08
27,960000000,27.96,imu_link,0.003997679843224047,0.012643938525019886,-0.007109831619379101,-5.6196077702844364e-05,-0.0001572172686900701,9.800026709695787,-4.615570793922858e-10,5.330484785087788e-08,-4.989105560521221e-08,0.9999999999999973,0.0;0.0;0.0;0.0;0.0;0.0;0.0;0.0;0.0,7.621289842063561e-05;0.0;0.0;0.0;7.621289842063561e-05;0.0;0.0;0.0;7.621289842063561e-05,3.999999975690116e-08;0.0;0.0;0.0;3.999999975690116e-08;0.0;0.0;0.0;3.999999975690116e-08
27,980000000,27.98,imu_link,0.0025710690407408426,0.011761600174705669,-0.008570848088181648,9.330883732037404e-05,-0.0003825980150944935,9.800123972884144,-4.615570793907441e-10,5.330484785035778e-08,-4.9891055605225536e-08,0.9999999999999973,0.0;0.0;0.0;0.0;0.0;0.0;0.0;0.0;0.0,7.621289842063561e-05;0.0;0.0;0.0;7.621289842063561e-05;0.0;0.0;0.0;7.621289842063561e-05,3.999999975690116e-08;0.0;0.0;0.0;3.999999975690116e-08;0.0;0.0;0.0;3.999999975690116e-08
28,0,28.0,imu_link,-0.012161209345584591,0.0038512614912608644,0.016414975834889264,0.00010047058166043805,0.00010412399084541644,9.799806945542272,-4.615570795852056e-10,5.330484785053076e-08,-4.989105560523781e-08,0.9999999999999973,0.0;0.0;0.0;0.0;0.0;0.0;0.0;0.0;0.0,7.621289842063561e-05;0.0;0.0;0.0;7.621289842063561e-05;0.0;0.0;0.0;7.621289842063561e-05,3.999999975690116e-08;0.0;0.0;0.0;3.999999975690116e-08;0.0;0.0;0.0;3.999999975690116e-08
28,20000000,28.02,imu_link,-0.008528314398984913,-0.004632067484655545,-0.005381734478486056,-4.4756442500214154e-05,-0.000117544669800873,9.799753089678457,-4.615570795278069e-10,5.330484785065613e-08,-4.9891055605251754e-08,0.9999999999999973,0.0;0.0;0.0;0.0;0.0;0.0;0.0;0.0;0.0,7.621289842063561e-05;0.0;0.0;0.0;7.621289842063561e-05;0.0;0.0;0.0;7.621289842063561e-05,3.999999975690116e-08;0.0;0.0;0.0;3.999999975690116e-08;0.0;0.0;0.0;3.999999975690116e-08
28,40000000,28.04,imu_link,0.011446100063149,0.015373610378561402,0.009619540457297982,0.00016603950185764234,-2.1573263034774386e-05,9.80008585575822,-4.615570795909222e-10,5.3304847850384545e-08,-4.989105560526664e-08,0.9999999999999973,0.0;0.0;0.0;0.0;0.0;0.0;0.0;0.0;0.0,7.621289842063561e-05;0.0;0.0;0.0;7.621289842063561e-05;0.0;0.0;0.0;7.621289842063561e-05,3.999999975690116e-08;0.0;0.0;0.0;3.999999975690116e-08;0.0;0.0;0.0;3.999999975690116e-08
28,60000000,28.06,imu_link,-0.01693642969986354,0.005795146432371434,0.01059878196784765,8.70464054874832e-05,-3.881439623015784e-05,9.800090969757578,-4.6155707939922764e-10,5.3304847850522466e-08,-4.9891055605279005e-08,0.9999999999999973,0.0;0.0;0.0;0.0;0.0;0.0;0.0;0.0;0.0,7.621289842063561e-05;0.0;0.0;0.0;7.621289842063561e-05;0.0;0.0;0.0;7.621289842063561e-05,3.999999975690116e-08;0.0;0.0;0.0;3.999999975690116e-08;0.0;0.0;0.0;3.999999975690116e-08
28,80000000,28.08,imu_link,0.0006049394416420207,0.010586799195752672,-0.0035921063457005527,0.00021528551468382262,0.00032857818477012005,9.799918088175197,-4.615570794758158e-10,5.330484785070839e-08,-4.989105560529393e-08,0.9999999999999973,0.0;0.0;0.0;0.0;0.0;0.0;0.0;0.0;0.0,7.621289842063561e-05;0.0;0.0;0.0;7.621289842063561e-05;0.0;0.0;0.0;7.621289842063561e-05,3.999999975690116e-08;0.0;0.0;0.0;3.999999975690116e-08;0.0;0.0;0.0;3.999999975690116e-08
28,100000000,28.1,imu_link,-0.013897206107480796,-0.003627739899363274,0.009453015988364543,-9.174449137863955e-05,0.00022543582885733353,9.799825373379413,-4.6155707942147776e-10,5.3304847850725476e-08,-4.9891055605307764e-08,0.9999999999999973,0.0;0.0;0.0;0.0;0.0;0.0;0.0;0.0;0.0,7.621289842063561e-05;0.0;0.0;0.0;7.621289842063561e-05;0.0;0.0;0.0;7.621289842063561e-05,3.999999975690116e-08;0.0;0.0;0.0;3.999999975690116e-08;0.0;0.0;0.0;3.999999975690116e-08
28,120000000,28.12,imu_link,0.010044208191617783,0.009020529121025396,-0.011229113080230738,0.00036828318495403354,4.188137087061231e-05,9.799985466774343,-4.6155707948395275e-10,5.330484785028208e-08,-4.989105560532065e-08,0.9999999999999973,0.0;0.0;0.0;0.0;0.0;0.0;0.0;0.0;0.0,7.621289842063561e-05;0.0;0.0;0.0;7.621289842063561e-05;0.0;0.0;0.0;7.621289842063561e-05,3.999999975690116e-08;0.0;0.0;0.0;3.999999975690116e-08;0.0;0.0;0.0;3.999999975690116e-08
28,140000000,28.14,imu_link,0.0017939216450075953,-0.008581907059577195,0.003939040201509538,-3.769312590494282e-05,6.629537119609437e-05,9.799837361681469,-4.6155707953341247e-10,5.33048478504687e-08,-4.989105560533406e-08,0.9999999999999973,0.0;0.0;0.0;0.0;0.0;0.0;0.0;0.0;0.0,7.621289842063561e-05;0.0;0.0;0.0;7.621289842063561e-05;0.0;0.0;0.0;7.621289842063561e-05,3.999999975690116e-08;0.0;0.0;0.0;3.999999975690116e-08;0.0;0.0;0.0;3.999999975690116e-08
28,160000000,28.16,imu_link,-0.02151814927047139,0.00038868148666844327,0.0007512326704808814,0.0002681821728148533,-0.0002044598041709246,9.799859948681867,-4.615570795853179e-10,5.3304847850664284e-08,-4.9891055605349686e-08,0.9999999999999973,0.0;0.0;0.0;0.0;0.0;0.0;0.0;0.0;0.0,7.621289842063561e-05;0.0;0.0;0.0;7.621289842063561e-05;0.0;0.0;0.0;7.621289842063561e-05,3.999999975690116e-08;0.0;0.0;0.0;3.999999975690116e-08;0.0;0.0;0.0;3.999999975690116e-08
28,180000000,28.18,imu_link,-0.009687706196448017,-0.009913366068435002,-0.0083642410375884,0.00020977390838727286,-0.0001221967710037104,9.80013737380693,-4.6155707940967297e-10,5.330484785033736e-08,-4.989105560536435e-08,0.9999999999999973,0.0;0.0;0.0;0.0;0.0;0.0;0.0;0.0;0.0,7.621289842063561e-05;0.0;0.0;0.0;7.621289842063561e-05;0.0;0.0;0.0;7.621289842063561e-05,3.999999975690116e-08;0.0;0.0;0.0;3.999999975690116e-08;0.0;0.0;0.0;3.999999975690116e-08
28,200000000,28.2,imu_link,-0.006820599684126064,0.012995029336506866,-0.0030328988235277217,0.00016289180352393177,-1.1580981267445752e-05,9.799762861123163,-4.615570795627787e-10,5.33048478506964e-08,-4.9891055605380014e-08,0.9999999999999973,0.0;0.0;0.0;0.0;0.0;0.0;0.0;0.0;0.0,7.621289842063561e-05;0.0;0.0;0.0;7.621289842063561e-05;0.0;0.0;0.0;7.621289842063561e-05,3.999999975690116e-08;0.0;0.0;0.0;3.999999975690116e-08;0.0;0.0;0.0;3.999999975690116e-08
28,220000000,28.22,imu_link,-4.606799520141483e-05,-0.011383090339053825,-0.008459032732816086,-0.00027444270038787873,0.00011155993987011746,9.80035676066665,-4.615570794044777e-10,5.3304847850718124e-08,-4.9891055605393473e-08,0.9999999999999973,0.0;0.0;0.0;0.0;0.0;0.0;0.0;0.0;0.0,7.621289842063561e-05;0.0;0.0;0.0;7.621289842063561e-05;0.0;0.0;0.0;7.621289842063561e-05,3.999999975690116e-08;0.0;0.0;0.0;3.999999975690116e-08;0.0;0.0;0.0;3.999999975690116e-08
28,240000000,28.24,imu_link,0.0014166838399158803,0.011467652627245948,-0.011725672955590941,0.0001080058569337906,0.00035656648890353745,9.79985590857929,-4.6155707960889135e-10,5.330484785043376e-08,-4.989105560540947e-08,0.9999999999999973,0.0;0.0;0.0;0.0;0.0;0.0;0.0;0.0;0.0,7.621289842063561e-05;0.0;0.0;0.0;7.621289842063561e-05;0.0;0.0;0.0;7.621289842063561e-05,3.999999975690116e-08;0.0;0.0;0.0;3.999999975690116e-08;0.0;0.0;0.0;3.999999975690116e-08
28,260000000,28.26,imu_link,-0.008659417738389267,0.01423191366723969,0.0023856003519073096,5.9048295215510974e-05,0.00042049609728928917,9.800111343716777,-4.615570795503931e-10,5.3304847850446994e-08,-4.989105560542358e-08,0.9999999999999973,0.0;0.0;0.0;0.0;0.0;0.0;0.0;0.0;0.0,7.621289842063561e-05;0.0;0.0;0.0;7.621289842063561e-05;0.0;0.0;0.0;7.621289842063561e-05,3.999999975690116e-08;0.0;0.0;0.0;3.999999975690116e-08;0.0;0.0;0.0;3.999999975690116e-08
28,280000000,28.28,imu_link,-0.0027863313555623933,0.0033525294885860903,0.0009940273456103,0.0004053026299723595,2.267552792304585e-05,9.799966834408607,-4.6155707937940875e-10,5.3304847850574763e-08,-4.989105560544039e-08,0.9999999999999973,0.0;0.0;0.0;0.0;0.0;0.0;0.0;0.0;0.0,7.621289842063561e-05;0.0;0.0;0.0;7.621289842063561e-05;0.0;0.0;0.0;7.621289842063561e-05,3.999999975690116e-08;0.0;0.0;0.0;3.999999975690116e-08;0.0;0.0;0.0;3.999999975690116e-08
28,300000000,28.3,imu_link,0.012748537939812746,0.00992927558336746,0.0030328886346225555,0.00025635144351484387,0.00016769530402779495,9.799789071198362,-4.615570796914928e-10,5.3304847850926e-08,-4.9891055605456425e-08,0.9999999999999973,0.0;0.0;0.0;0.0;0.0;0.0;0.0;0.0;0.0,7.621289842063561e-05;0.0;0.0;0.0;7.621289842063561e-05;0.0;0.0;0.0;7.621289842063561e-05,3.999999975690116e-08;0.0;0.0;0.0;3.999999975690116e-08;0.0;0.0;0.0;3.999999975690116e-08
28,320000000,28.32,imu_link,-0.003999524290790363,-0.008084965792692318,0.00038431328601375023,0.00010308715626179636,-0.00016870124588613868,9.799578809428834,-4.615570795509018e-10,5.330484785040908e-08,-4.989105560547268e-08,0.9999999999999973,0.0;0.0;0.0;0.0;0.0;0.0;0.0;0.0;0.0,7.621289842063561e-05;0.0;0.0;0.0;7.621289842063561e-05;0.0;0.0;0.0;7.621289842063561e-05,3.999999975690116e-08;0.0;0.0;0.0;3.999999975690116e-08;0.0;0.0;0.0;3.999999975690116e-08
28,340000000,28.34,imu_link,-0.018372719897899837,-0.01591193178790664,0.006399814040182153,0.00014458867451409268,-0.00010879386022001168,9.799638886888863,-4.6155707937667223e-10,5.330484785052783e-08,-4.9891055605489585e-08,0.9999999999999973,0.0;0.0;0.0;0.0;0.0;0.0;0.0;0.0;0.0,7.621289842063561e-05;0.0;0.0;0.0;7.621289842063561e-05;0.0;0.0;0.0;7.621289842063561e-05,3.999999975690116e-08;0.0;0.0;0.0;3.999999975690116e-08;0.0;0.0;0.0;3.999999975690116e-08
28,360000000,28.36,imu_link,0.0053837746660816655,-0.018374318404226375,-0.004597855913271168,0.00021785827503549565,5.14012967947479e-05,9.79980081199999,-4.615570795226614e-10,5.3304847850895604e-08,-4.989105560550629e-08,0.9999999999999973,0.0;0.0;0.0;0.0;0.0;0.0;0.0;0.0;0.0,7.621289842063561e-05;0.0;0.0;0.0;7.621289842063561e-05;0.0;0.0;0.0;7.621289842063561e-05,3.999999975690116e-08;0.0;0.0;0.0;3.999999975690116e-08;0.0;0.0;0.0;3.999999975690116e-08
28,380000000,28.38,imu_link,0.012079594419632795,-0.00945067997345991,-0.007327898855815075,0.00012679639384872282,0.00013771457667286784,9.799777628292542,-4.6155707937093444e-10,5.3304847850381554e-08,-4.989105560552365e-08,0.9999999999999973,0.0;0.0;0.0;0.0;0.0;0.0;0.0;0.0;0.0,7.621289842063561e-05;0.0;0.0;0.0;7.621289842063561e-05;0.0;0.0;0.0;7.621289842063561e-05,3.999999975690116e-08;0.0;0.0;0.0;3.999999975690116e-08;0.0;0.0;0.0;3.999999975690116e-08
28,400000000,28.4,imu_link,-0.000506726829498671,-0.0019224112876265924,0.004241467515955748,0.00015413623755735785,0.0002784294022324933,9.800221065134066,-4.615570795696905e-10,5.330484785044115e-08,-4.989105560554051e-08,0.9999999999999973,0.0;0.0;0.0;0.0;0.0;0.0;0.0;0.0;0.0,7.621289842063561e-05;0.0;0.0;0.0;7.621289842063561e-05;0.0;0.0;0.0;7.621289842063561e-05,3.999999975690116e-08;0.0;0.0;0.0;3.999999975690116e-08;0.0;0.0;0.0;3.999999975690116e-08
28,420000000,28.42,imu_link,-0.007624470068467933,-0.010141123440581162,-0.002822266672983933,-9.767333427121317e-05,0.00037307337034276033,9.799952357402988,-4.615570793730122e-10,5.330484785059212e-08,-4.989105560555493e-08,0.9999999999999973,0.0;0.0;0.0;0.0;0.0;0.0;0.0;0.0;0.0,7.621289842063561e-05;0.0;0.0;0.0;7.621289842063561e-05;0.0;0.0;0.0;7.621289842063561e-05,3.999999975690116e-08;0.0;0.0;0.0;3.999999975690116e-08;0.0;0.0;0.0;3.999999975690116e-08
28,440000000,28.44,imu_link,-0.00974836961441072,0.001521512785358419,-0.00024750682542950647,-0.00020598772866790117,-2.8735625846102334e-05,9.79978614101238,-4.6155707942290455e-10,5.330484785078089e-08,-4.989105560557128e-08,0.9999999999999973,0.0;0.0;0.0;0.0;0.0;0.0;0.0;0.0;0.0,7.621289842063561e-05;0.0;0.0;0.0;7.621289842063561e-05;0.0;0.0;0.0;7.621289842063561e-05,3.999999975690116e-08;0.0;0.0;0.0;3.999999975690116e-08;0.0;0.0;0.0;3.999999975690116e-08
28,460000000,28.46,imu_link,0.005584471514565637,0.0038721104944247266,-0.008980154337025219,0.00011677848873872175,0.00013092391306185702,9.799993771677846,-4.6155707951298193e-10,5.330484785050942e-08,-4.9891055605586445e-08,0.9999999999999973,0.0;0.0;0.0;0.0;0.0;0.0;0.0;0.0;0.0,7.621289842063561e-05;0.0;0.0;0.0;7.621289842063561e-05;0.0;0.0;0.0;7.621289842063561e-05,3.999999975690116e-08;0.0;0.0;0.0;3.999999975690116e-08;0.0;0.0;0.0;3.999999975690116e-08
28,480000000,28.48,imu_link,0.025115362260092384,0.016091411601942263,0.002550665066329832,0.0001333364814156535,0.0004542877278985452,9.799827477008632,-4.615570795616849e-10,5.3304847850761256e-08,-4.989105560560212e-08,0.9999999999999973,0.0;0.0;0.0;0.0;0.0;0.0;0.0;0.0;0.0,7.621289842063561e-05;0.0;0.0;0.0;7.621289842063561e-05;0.0;0.0;0.0;7.621289842063561e-05,3.999999975690116e-08;0.0;0.0;0.0;3.999999975690116e-08;0.0;0.0;0.0;3.999999975690116e-08
28,500000000,28.5,imu_link,-0.011242241837747788,-0.012415325144879192,-0.0015890487339409642,0.00010330867161504573,-0.00012151125997301699,9.800005533836538,-4.61557079534652e-10,5.330484785089457e-08,-4.9891055605619115e-08,0.9999999999999973,0.0;0.0;0.0;0.0;0.0;0.0;0.0;0.0;0.0,7.621289842063561e-05;0.0;0.0;0.0;7.621289842063561e-05;0.0;0.0;0.0;7.621289842063561e-05,3.999999975690116e-08;0.0;0.0;0.0;3.999999975690116e-08;0.0;0.0;0.0;3.999999975690116e-08
28,520000000,28.52,imu_link,0.020103607978462362,0.001477250181830563,0.004650700016427058,-4.425699560514507e-05,0.00040409966624081273,9.800120072399862,-4.615570795208402e-10,5.330484785025733e-08,-4.989105560563522e-08,0.9999999999999973,0.0;0.0;0.0;0.0;0.0;0.0;0.0;0.0;0.0,7.621289842063561e-05;0.0;0.0;0.0;7.621289842063561e-05;0.0;0.0;0.0;7.621289842063561e-05,3.999999975690116e-08;0.0;0.0;0.0;3.999999975690116e-08;0.0;0.0;0.0;3.999999975690116e-08
28,540000000,28.54,imu_link,0.009926000454945516,0.009560230919041577,-0.005061012659968449,0.0003409208035379602,0.00021178968336906198,9.799836704636547,-4.6155707955577933e-10,5.33048478507588e-08,-4.989105560565162e-08,0.9999999999999973,0.0;0.0;0.0;0.0;0.0;0.0;0.0;0.0;0.0,7.621289842063561e-05;0.0;0.0;0.0;7.621289842063561e-05;0.0;0.0;0.0;7.621289842063561e-05,3.999999975690116e-08;0.0;0.0;0.0;3.999999975690116e-08;0.0;0.0;0.0;3.999999975690116e-08
28,560000000,28.56,imu_link,-0.007947737434157368,0.0017991090022642967,-0.002335276568017934,0.0003887109201103399,4.313302469519591e-05,9.79981455660632,-4.6155707940319175e-10,5.3304847850262877e-08,-4.9891055605666417e-08,0.9999999999999973,0.0;0.0;0.0;0.0;0.0;0.0;0.0;0.0;0.0,7.621289842063561e-05;0.0;0.0;0.0;7.621289842063561e-05;0.0;0.0;0.0;7.621289842063561e-05,3.999999975690116e-08;0.0;0.0;0.0;3.999999975690116e-08;0.0;0.0;0.0;3.999999975690116e-08
28,580000000,28.58,imu_link,0.0012763075719898042,-0.006646568724890505,0.009522241098617932,0.0003840154467498288,-0.00034700200596058636,9.800021856835778,-4.615570793698116e-10,5.3304847850394835e-08,-4.9891055605682146e-08,0.9999999999999973,0.0;0.0;0.0;0.0;0.0;0.0;0.0;0.0;0.0,7.621289842063561e-05;0.0;0.0;0.0;7.621289842063561e-05;0.0;0.0;0.0;7.621289842063561e-05,3.999999975690116e-08;0.0;0.0;0.0;3.999999975690116e-08;0.0;0.0;0.0;3.999999975690116e-08
28,600000000,28.6,imu_link,-0.0012914077592452253,-0.0019193348850179467,-0.004540740311895959,0.00010446911190778125,4.6561821754062885e-06,9.799632994961897,-4.6155707959352833e-10,5.330484785057522e-08,-4.989105560569892e-08,0.9999999999999973,0.0;0.0;0.0;0.0;0.0;0.0;0.0;0.0;0.0,7.621289842063561e-05;0.0;0.0;0.0;7.621289842063561e-05;0.0;0.0;0.0;7.621289842063561e-05,3.999999975690116e-08;0.0;0.0;0.0;3.999999975690116e-08;0.0;0.0;0.0;3.999999975690116e-08
28,620000000,28.62,imu_link,-0.003748016607278158,0.012986630777141323,-0.012800313801892045,0.00019037728851804066,0.00023532955492445458,9.799671000032735,-4.615570795209161e-10,5.330484785077172e-08,-4.9891055605715134e-08,0.9999999999999973,0.0;0.0;0.0;0.0;0.0;0.0;0.0;0.0;0.0,7.621289842063561e-05;0.0;0.0;0.0;7.621289842063561e-05;0.0;0.0;0.0;7.621289842063561e-05,3.999999975690116e-08;0.0;0.0;0.0;3.999999975690116e-08;0.0;0.0;0.0;3.999999975690116e-08
28,640000000,28.64,imu_link,-0.002317004744465483,-0.004505474898524281,0.009054020969678995,1.0591028815595601e-05,0.0003516271946135005,9.7999232013154,-4.6155707950056833e-10,5.330484785089633e-08,-4.9891055605731354e-08,0.9999999999999973,0.0;0.0;0.0;0.0;0.0;0.0;0.0;0.0;0.0,7.621289842063561e-05;0.0;0.0;0.0;7.621289842063561e-05;0.0;0.0;0.0;7.621289842063561e-05,3.999999975690116e-08;0.0;0.0;0.0;3.999999975690116e-08;0.0;0.0;0.0;3.999999975690116e-08
28,660000000,28.66,imu_link,-0.0041912270528628595,0.00455606350736814,-0.013732726335641798,-2.739667022745034e-05,0.00017730154281949713,9.800274316885377,-4.615570794978312e-10,5.330484785037222e-08,-4.9891055605747315e-08,0.9999999999999973,0.0;0.0;0.0;0.0;0.0;0.0;0.0;0.0;0.0,7.621289842063561e-05;0.0;0.0;0.0;7.621289842063561e-05;0.0;0.0;0.0;7.621289842063561e-05,3.999999975690116e-08;0.0;0.0;0.0;3.999999975690116e-08;0.0;0.0;0.0;3.999999975690116e-08
28,680000000,28.68,imu_link,-0.0035460267067133518,-0.018925512784215046,0.004402078849274191,9.85161236861826e-05,-2.3026042568028983e-05,9.799827839613245,-4.615570796687933e-10,5.3304847850722716e-08,-4.989105560576571e-08,0.9999999999999973,0.0;0.0;0.0;0.0;0.0;0.0;0.0;0.0;0.0,7.621289842063561e-05;0.0;0.0;0.0;7.621289842063561e-05;0.0;0.0;0.0;7.621289842063561e-05,3.999999975690116e-08;0.0;0.0;0.0;3.999999975690116e-08;0.0;0.0;0.0;3.999999975690116e-08
28,700000000,28.7,imu_link,-0.002504176855416796,0.007321994522443508,0.0051961872964929896,0.00020427817412889496,0.00033877438162339095,9.79984473205334,-4.6155707940439747e-10,5.330484785079944e-08,-4.989105560578251e-08,0.9999999999999973,0.0;0.0;0.0;0.0;0.0;0.0;0.0;0.0;0.0,7.621289842063561e-05;0.0;0.0;0.0;7.621289842063561e-05;0.0;0.0;0.0;7.621289842063561e-05,3.999999975690116e-08;0.0;0.0;0.0;3.999999975690116e-08;0.0;0.0;0.0;3.999999975690116e-08
28,720000000,28.72,imu_link,-0.00635350239637504,-0.01011914438717897,0.008297292466319136,-0.00018362792782206897,2.2713390195963455e-05,9.800249621271984,-4.615570796076853e-10,5.3304847850506346e-08,-4.989105560579947e-08,0.9999999999999973,0.0;0.0;0.0;0.0;0.0;0.0;0.0;0.0;0.0,7.621289842063561e-05;0.0;0.0;0.0;7.621289842063561e-05;0.0;0.0;0.0;7.621289842063561e-05,3.999999975690116e-08;0.0;0.0;0.0;3.999999975690116e-08;0.0;0.0;0.0;3.999999975690116e-08
28,740000000,28.74,imu_link,-0.009474614001965411,-0.005263529412006176,-0.010264677271319184,0.00020544788976905592,0.0002675277682142378,9.79997849146834,-4.615570794195514e-10,5.3304847850519455e-08,-4.989105560581701e-08,0.9999999999999973,0.0;0.0;0.0;0.0;0.0;0.0;0.0;0.0;0.0,7.621289842063561e-05;0.0;0.0;0.0;7.621289842063561e-05;0.0;0.0;0.0;7.621289842063561e-05,3.999999975690116e-08;0.0;0.0;0.0;3.999999975690116e-08;0.0;0.0;0.0;3.999999975690116e-08
28,760000000,28.76,imu_link,0.006665097719232318,-0.003242773304621782,0.0010829378534392207,0.00012964882916245363,0.0001983155318342629,9.799780492530852,-4.61557079356392e-10,5.3304847850833856e-08,-4.9891055605833136e-08,0.9999999999999973,0.0;0.0;0.0;0.0;0.0;0.0;0.0;0.0;0.0,7.621289842063561e-05;0.0;0.0;0.0;7.621289842063561e-05;0.0;0.0;0.0;7.621289842063561e-05,3.999999975690116e-08;0.0;0.0;0.0;3.999999975690116e-08;0.0;0.0;0.0;3.999999975690116e-08
28,780000000,28.78,imu_link,-0.00856860653493203,0.0032202342053475534,0.006226879904042613,5.567537764358644e-05,0.0006747147896715318,9.799826411276756,-4.6155707946608105e-10,5.33048478502539e-08,-4.9891055605847126e-08,0.9999999999999973,0.0;0.0;0.0;0.0;0.0;0.0;0.0;0.0;0.0,7.621289842063561e-05;0.0;0.0;0.0;7.621289842063561e-05;0.0;0.0;0.0;7.621289842063561e-05,3.999999975690116e-08;0.0;0.0;0.0;3.999999975690116e-08;0.0;0.0;0.0;3.999999975690116e-08
28,800000000,28.8,imu_link,0.0034654782494331843,0.003259618152655359,-0.006447514133092718,-0.00031449416282173896,0.00020911916795184055,9.799777403158695,-4.61557079521554e-10,5.330484785042816e-08,-4.9891055605864424e-08,0.9999999999999973,0.0;0.0;0.0;0.0;0.0;0.0;0.0;0.0;0.0,7.621289842063561e-05;0.0;0.0;0.0;7.621289842063561e-05;0.0;0.0;0.0;7.621289842063561e-05,3.999999975690116e-08;0.0;0.0;0.0;3.999999975690116e-08;0.0;0.0;0.0;3.999999975690116e-08
28,820000000,28.82,imu_link,-0.0004062360921703083,0.0114086334602617,-0.012258945762013647,9.609022926513846e-06,4.748698235035006e-05,9.799625912328596,-4.615570794832367e-10,5.3304847850556545e-08,-4.9891055605881695e-08,0.9999999999999973,0.0;0.0;0.0;0.0;0.0;0.0;0.0;0.0;0.0,7.621289842063561e-05;0.0;0.0;0.0;7.621289842063561e-05;0.0;0.0;0.0;7.621289842063561e-05,3.999999975690116e-08;0.0;0.0;0.0;3.999999975690116e-08;0.0;0.0;0.0;3.999999975690116e-08
28,840000000,28.84,imu_link,0.004275267756569101,0.009626655874138412,-0.007133429754612919,3.725906772519934e-05,-0.00016777221962719453,9.799817490047422,-4.615570795678362e-10,5.330484785028346e-08,-4.9891055605897974e-08,0.9999999999999973,0.0;0.0;0.0;0.0;0.0;0.0;0.0;0.0;0.0,7.621289842063561e-05;0.0;0.0;0.0;7.621289842063561e-05;0.0;0.0;0.0;7.621289842063561e-05,3.999999975690116e-08;0.0;0.0;0.0;3.999999975690116e-08;0.0;0.0;0.0;3.999999975690116e-08
28,860000000,28.86,imu_link,-0.023153645582168775,-0.00675158618093023,-0.0008866460711377727,0.00010797521354415508,-0.0002035817763318083,9.799915825292672,-4.615570796342219e-10,5.330484785047512e-08,-4.98910556059148e-08,0.9999999999999973,0.0;0.0;0.0;0.0;0.0;0.0;0.0;0.0;0.0,7.621289842063561e-05;0.0;0.0;0.0;7.621289842063561e-05;0.0;0.0;0.0;7.621289842063561e-05,3.999999975690116e-08;0.0;0.0;0.0;3.999999975690116e-08;0.0;0.0;0.0;3.999999975690116e-08
28,880000000,28.88,imu_link,0.005090379876200746,0.0033596466014625907,0.0004273718368391831,-4.727915308773843e-05,9.874077916292688e-05,9.800013395996213,-4.6155707943463883e-10,5.3304847850686e-08,-4.989105560593028e-08,0.9999999999999973,0.0;0.0;0.0;0.0;0.0;0.0;0.0;0.0;0.0,7.621289842063561e-05;0.0;0.0;0.0;7.621289842063561e-05;0.0;0.0;0.0;7.621289842063561e-05,3.999999975690116e-08;0.0;0.0;0.0;3.999999975690116e-08;0.0;0.0;0.0;3.999999975690116e-08
28,900000000,28.9,imu_link,-0.011440478318608161,-0.00010853297309896168,-0.008615885973929876,0.00022736865554300615,-4.213481687831422e-06,9.800133359630683,-4.6155707952254155e-10,5.330484785086746e-08,-4.989105560594793e-08,0.9999999999999973,0.0;0.0;0.0;0.0;0.0;0.0;0.0;0.0;0.0,7.621289842063561e-05;0.0;0.0;0.0;7.621289842063561e-05;0.0;0.0;0.0;7.621289842063561e-05,3.999999975690116e-08;0.0;0.0;0.0;3.999999975690116e-08;0.0;0.0;0.0;3.999999975690116e-08
28,920000000,28.92,imu_link,-0.0020791072870772155,-0.0066636618275010984,0.004319365755164801,0.0001683104442898133,0.0003040459188015799,9.799556935727228,-4.6155707961768537e-10,5.33048478504091e-08,-4.989105560596479e-08,0.9999999999999973,0.0;0.0;0.0;0.0;0.0;0.0;0.0;0.0;0.0,7.621289842063561e-05;0.0;0.0;0.0;7.621289842063561e-05;0.0;0.0;0.0;7.621289842063561e-05,3.999999975690116e-08;0.0;0.0;0.0;3.999999975690116e-08;0.0;0.0;0.0;3.999999975690116e-08
28,940000000,28.94,imu_link,0.004900343262150586,-0.00026365715458890324,0.016310683196769052,0.00010045965445095328,0.00015426555308008678,9.799939511727313,-4.615570795770396e-10,5.3304847850534324e-08,-4.9891055605980626e-08,0.9999999999999973,0.0;0.0;0.0;0.0;0.0;0.0;0.0;0.0;0.0,7.621289842063561e-05;0.0;0.0;0.0;7.621289842063561e-05;0.0;0.0;0.0;7.621289842063561e-05,3.999999975690116e-08;0.0;0.0;0.0;3.999999975690116e-08;0.0;0.0;0.0;3.999999975690116e-08
28,960000000,28.96,imu_link,0.002899187425515956,0.0040692600936392065,0.0014916859231586918,-0.00010078377090496116,0.00018303786157018018,9.799990779491397,-4.615570795433174e-10,5.330484785067485e-08,-4.9891055605996634e-08,0.9999999999999973,0.0;0.0;0.0;0.0;0.0;0.0;0.0;0.0;0.0,7.621289842063561e-05;0.0;0.0;0.0;7.621289842063561e-05;0.0;0.0;0.0;7.621289842063561e-05,3.999999975690116e-08;0.0;0.0;0.0;3.999999975690116e-08;0.0;0.0;0.0;3.999999975690116e-08
28,980000000,28.98,imu_link,-0.01222338650719279,0.003744847512109286,-0.0006261389280986263,4.622809308981473e-05,0.00011925733333140317,9.800055213019998,-4.6155707937641214e-10,5.3304847850340784e-08,-4.9891055606013925e-08,0.9999999999999973,0.0;0.0;0.0;0.0;0.0;0.0;0.0;0.0;0.0,7.621289842063561e-05;0.0;0.0;0.0;7.621289842063561e-05;0.0;0.0;0.0;7.621289842063561e-05,3.999999975690116e-08;0.0;0.0;0.0;3.999999975690116e-08;0.0;0.0;0.0;3.999999975690116e-08
29,0,29.0,imu_link,0.011430521168073382,0.009543856079971361,-0.0015975413323789027,-0.00016518226432043177,4.4578662034393675e-06,9.799810645219223,-4.6155707959760587e-10,5.330484785052117e-08,-4.9891055606033526e-08,0.9999999999999973,0.0;0.0;0.0;0.0;0.0;0.0;0.0;0.0;0.0,7.621289842063561e-05;0.0;0.0;0.0;7.621289842063561e-05;0.0;0.0;0.0;7.621289842063561e-05,3.999999975690116e-08;0.0;0.0;0.0;3.999999975690116e-08;0.0;0.0;0.0;3.999999975690116e-08
29,20000000,29.02,imu_link,-0.001276328290448799,0.003844988795926586,-0.0016298496182923562,0.00024590111488784715,-0.00021310390312549498,9.799570405482156,-4.615570795438757e-10,5.330484785065673e-08,-4.989105560605055e-08,0.9999999999999973,0.0;0.0;0.0;0.0;0.0;0.0;0.0;0.0;0.0,7.621289842063561e-05;0.0;0.0;0.0;7.621289842063561e-05;0.0;0.0;0.0;7.621289842063561e-05,3.999999975690116e-08;0.0;0.0;0.0;3.999999975690116e-08;0.0;0.0;0.0;3.999999975690116e-08
29,40000000,29.04,imu_link,0.01867798899387855,-0.0016670312172837453,0.016462682530252376,-0.000293837947927422,0.00015924513660830553,9.799673757302648,-4.6155707958803456e-10,5.3304847850369775e-08,-4.989105560606759e-08,0.9999999999999973,0.0;0.0;0.0;0.0;0.0;0.0;0.0;0.0;0.0,7.621289842063561e-05;0.0;0.0;0.0;7.621289842063561e-05;0.0;0.0;0.0;7.621289842063561e-05,3.999999975690116e-08;0.0;0.0;0.0;3.999999975690116e-08;0.0;0.0;0.0;3.999999975690116e-08
29,60000000,29.06,imu_link,0.011736025799497242,0.014297233963871291,-0.013457947361545763,0.0001898400184317123,2.3007728441651242e-05,9.799988432915876,-4.615570794047138e-10,5.3304847850385815e-08,-4.9891055606084824e-08,0.9999999999999973,0.0;0.0;0.0;0.0;0.0;0.0;0.0;0.0;0.0,7.621289842063561e-05;0.0;0.0;0.0;7.621289842063561e-05;0.0;0.0;0.0;7.621289842063561e-05,3.999999975690116e-08;0.0;0.0;0.0;3.999999975690116e-08;0.0;0.0;0.0;3.999999975690116e-08
29,80000000,29.08,imu_link,-0.009681354778482148,-0.0010899271236970715,-0.0015799208248457905,8.580041574173546e-05,0.00022190068991203226,9.799747076681712,-4.61557079460552e-10,5.3304847850687075e-08,-4.989105560610382e-08,0.9999999999999973,0.0;0.0;0.0;0.0;0.0;0.0;0.0;0.0;0.0,7.621289842063561e-05;0.0;0.0;0.0;7.621289842063561e-05;0.0;0.0;0.0;7.621289842063561e-05,3.999999975690116e-08;0.0;0.0;0.0;3.999999975690116e-08;0.0;0.0;0.0;3.999999975690116e-08
29,100000000,29.1,imu_link,-0.004676729425347697,-0.0038951255856871127,-0.003404708251031715,0.0003096482943230768,0.00016472489544885942,9.799601739411717,-4.615570795325422e-10,5.330484785086353e-08,-4.989105560612167e-08,0.9999999999999973,0.0;0.0;0.0;0.0;0.0;0.0;0.0;0.0;0.0,7.621289842063561e-05;0.0;0.0;0.0;7.621289842063561e-05;0.0;0.0;0.0;7.621289842063561e-05,3.999999975690116e-08;0.0;0.0;0.0;3.999999975690116e-08;0.0;0.0;0.0;3.999999975690116e-08
29,120000000,29.12,imu_link,0.01206280720171238,-0.008274829147988107,0.0035303696975769005,0.0003003359016367494,0.00015378195751025758,9.800052599619452,-4.615570794030292e-10,5.3304847850345786e-08,-4.9891055606140834e-08,0.9999999999999973,0.0;0.0;0.0;0.0;0.0;0.0;0.0;0.0;0.0,7.621289842063561e-05;0.0;0.0;0.0;7.621289842063561e-05;0.0;0.0;0.0;7.621289842063561e-05,3.999999975690116e-08;0.0;0.0;0.0;3.999999975690116e-08;0.0;0.0;0.0;3.999999975690116e-08
29,140000000,29.14,imu_link,-0.0030854446370801674,0.0062159730870523485,-0.011748354301055334,0.0002995493937547126,-0.00015043001948988882,9.800031988847586,-4.6155707949428817e-10,5.330484785047558e-08,-4.989105560615622e-08,0.9999999999999973,0.0;0.0;0.0;0.0;0.0;0.0;0.0;0.0;0.0,7.621289842063561e-05;0.0;0.0;0.0;7.621289842063561e-05;0.0;0.0;0.0;7.621289842063561e-05,3.999999975690116e-08;0.0;0.0;0.0;3.999999975690116e-08;0.0;0.0;0.0;3.999999975690116e-08
29,160000000,29.16,imu_link,-0.0032360766782928495,-0.010886648445003038,0.0006897316148137582,3.627458017306651e-05,0.00016283232305151822,9.799613931295681,-4.615570796693651e-10,5.330484785072623e-08,-4.98910556061727e-08,0.9999999999999973,0.0;0.0;0.0;0.0;0.0;0.0;0.0;0.0;0.0,7.621289842063561e-05;0.0;0.0;0.0;7.621289842063561e-05;0.0;0.0;0.0;7.621289842063561e-05,3.999999975690116e-08;0.0;0.0;0.0;3.999999975690116e-08;0.0;0.0;0.0;3.999999975690116e-08
29,180000000,29.18,imu_link,0.006151314312542231,0.006810197664328367,-0.008665888420400862,1.2215511989353302e-05,-0.00016199348352028455,9.800086875934989,-4.615570794798304e-10,5.33048478508707e-08,-4.9891055606187745e-08,0.9999999999999973,0.0;0.0;0.0;0.0;0.0;0.0;0.0;0.0;0.0,7.621289842063561e-05;0.0;0.0;0.0;7.621289842063561e-05;0.0;0.0;0.0;7.621289842063561e-05,3.999999975690116e-08;0.0;0.0;0.0;3.999999975690116e-08;0.0;0.0;0.0;3.999999975690116e-08
29,200000000,29.2,imu_link,-0.0008125505550873191,-0.006312502948556875,0.00872219200175451,0.0005116190932357156,-0.00034903312675697894,9.799849294788004,-4.615570795575501e-10,5.330484785058897e-08,-4.989105560620359e-08,0.9999999999999973,0.0;0.0;0.0;0.0;0.0;0.0;0.0;0.0;0.0,7.621289842063561e-05;0.0;0.0;0.0;7.621289842063561e-05;0.0;0.0;0.0;7.621289842063561e-05,3.999999975690116e-08;0.0;0.0;0.0;3.999999975690116e-08;0.0;0.0;0.0;3.999999975690116e-08
29,220000000,29.22,imu_link,-0.007574988908931876,-0.010417804748146473,-0.002972575241641442,0.0002026209046708073,0.00018533510603711546,9.79961181570085,-4.6155707964266643e-10,5.3304847850704386e-08,-4.9891055606220105e-08,0.9999999999999973,0.0;0.0;0.0;0.0;0.0;0.0;0.0;0.0;0.0,7.621289842063561e-05;0.0;0.0;0.0;7.621289842063561e-05;0.0;0.0;0.0;7.621289842063561e-05,3.999999975690116e-08;0.0;0.0;0.0;3.999999975690116e-08;0.0;0.0;0.0;3.999999975690116e-08
29,240000000,29.24,imu_link,-0.009684347761789544,-0.002050469011580246,0.0020227720978235266,0.00010419082293268966,0.0001601833060756749,9.799844685117263,-4.6155707946699374e-10,5.330484785084219e-08,-4.989105560623628e-08,0.9999999999999973,0.0;0.0;0.0;0.0;0.0;0.0;0.0;0.0;0.0,7.621289842063561e-05;0.0;0.0;0.0;7.621289842063561e-05;0.0;0.0;0.0;7.621289842063561e-05,3.999999975690116e-08;0.0;0.0;0.0;3.999999975690116e-08;0.0;0.0;0.0;3.999999975690116e-08
29,260000000,29.26,imu_link,-0.005067254268608172,-0.011814242957789621,0.009717615122139653,-0.00015309345927781275,0.0003769107997575262,9.799909675957489,-4.6155707943912794e-10,5.3304847850331314e-08,-4.9891055606250386e-08,0.9999999999999973,0.0;0.0;0.0;0.0;0.0;0.0;0.0;0.0;0.0,7.621289842063561e-05;0.0;0.0;0.0;7.621289842063561e-05;0.0;0.0;0.0;7.621289842063561e-05,3.999999975690116e-08;0.0;0.0;0.0;3.999999975690116e-08;0.0;0.0;0.0;3.999999975690116e-08
29,280000000,29.28,imu_link,0.002220738023387591,0.0023024522962749603,0.000952555168844813,-0.00011427810270830072,0.00010360838181097378,9.799630675120225,-4.615570794944223e-10,5.330484785051377e-08,-4.989105560626558e-08,0.9999999999999973,0.0;0.0;0.0;0.0;0.0;0.0;0.0;0.0;0.0,7.621289842063561e-05;0.0;0.0;0.0;7.621289842063561e-05;0.0;0.0;0.0;7.621289842063561e-05,3.999999975690116e-08;0.0;0.0;0.0;3.999999975690116e-08;0.0;0.0;0.0;3.999999975690116e-08
29,300000000,29.3,imu_link,0.005472106967319116,0.020700083441597607,0.01056298177103855,0.0002863443640877536,2.7042541966708805e-05,9.799799698562412,-4.615570795641286e-10,5.330484785070196e-08,-4.989105560628218e-08,0.9999999999999973,0.0;0.0;0.0;0.0;0.0;0.0;0.0;0.0;0.0,7.621289842063561e-05;0.0;0.0;0.0;7.621289842063561e-05;0.0;0.0;0.0;7.621289842063561e-05,3.999999975690116e-08;0.0;0.0;0.0;3.999999975690116e-08;0.0;0.0;0.0;3.999999975690116e-08
29,320000000,29.32,imu_link,-0.008009387235821,0.0010819770242981234,-0.012491494316972126,-5.314412700271545e-05,-6.0780925487926026e-05,9.799771748335514,-4.6155707938565816e-10,5.3304847850366545e-08,-4.98910556062973e-08,0.9999999999999973,0.0;0.0;0.0;0.0;0.0;0.0;0.0;0.0;0.0,7.621289842063561e-05;0.0;0.0;0.0;7.621289842063561e-05;0.0;0.0;0.0;7.621289842063561e-05,3.999999975690116e-08;0.0;0.0;0.0;3.999999975690116e-08;0.0;0.0;0.0;3.999999975690116e-08
29,340000000,29.34,imu_link,0.013995545019940823,-0.005975022564127389,-0.010001568177824025,8.857305252527136e-05,-1.8118456271118752e-05,9.79969354807642,-4.615570795806085e-10,5.3304847850421536e-08,-4.98910556063138e-08,0.9999999999999973,0.0;0.0;0.0;0.0;0.0;0.0;0.0;0.0;0.0,7.621289842063561e-05;0.0;0.0;0.0;7.621289842063561e-05;0.0;0.0;0.0;7.621289842063561e-05,3.999999975690116e-08;0.0;0.0;0.0;3.999999975690116e-08;0.0;0.0;0.0;3.999999975690116e-08
29,360000000,29.36,imu_link,0.0014306913983127025,0.012639099454322823,0.008308726752105701,3.0716466251096185e-05,-3.695330358122942e-05,9.79978517306972,-4.615570795002784e-10,5.330484785073986e-08,-4.989105560632982e-08,0.9999999999999973,0.0;0.0;0.0;0.0;0.0;0.0;0.0;0.0;0.0,7.621289842063561e-05;0.0;0.0;0.0;7.621289842063561e-05;0.0;0.0;0.0;7.621289842063561e-05,3.999999975690116e-08;0.0;0.0;0.0;3.999999975690116e-08;0.0;0.0;0.0;3.999999975690116e-08
29,380000000,29.38,imu_link,-0.002710267040563318,0.0011512513332436513,-0.007499104893846632,6.731369238848285e-05,-2.360539315706634e-05,9.800143766085622,-4.6155707970742294e-10,5.330484785080935e-08,-4.989105560634462e-08,0.9999999999999973,0.0;0.0;0.0;0.0;0.0;0.0;0.0;0.0;0.0,7.621289842063561e-05;0.0;0.0;0.0;7.621289842063561e-05;0.0;0.0;0.0;7.621289842063561e-05,3.999999975690116e-08;0.0;0.0;0.0;3.999999975690116e-08;0.0;0.0;0.0;3.999999975690116e-08
29,400000000,29.4,imu_link,-0.013892933672390452,-0.003830242577184971,-0.009186976874148524,2.1338761190265975e-05,0.00013642582810011124,9.79959497331252,-4.615570795351294e-10,5.330484785049097e-08,-4.989105560635956e-08,0.9999999999999973,0.0;0.0;0.0;0.0;0.0;0.0;0.0;0.0;0.0,7.621289842063561e-05;0.0;0.0;0.0;7.621289842063561e-05;0.0;0.0;0.0;7.621289842063561e-05,3.999999975690116e-08;0.0;0.0;0.0;3.999999975690116e-08;0.0;0.0;0.0;3.999999975690116e-08
29,420000000,29.42,imu_link,-0.0015765645815549027,-0.00571927312090741,0.010046842551508504,0.00016867352064098035,0.00014227164615565965,9.799441995290941,-4.6155707946499346e-10,5.3304847850681165e-08,-4.989105560637441e-08,0.9999999999999973,0.0;0.0;0.0;0.0;0.0;0.0;0.0;0.0;0.0,7.621289842063561e-05;0.0;0.0;0.0;7.621289842063561e-05;0.0;0.0;0.0;7.621289842063561e-05,3.999999975690116e-08;0.0;0.0;0.0;3.999999975690116e-08;0.0;0.0;0.0;3.999999975690116e-08
29,440000000,29.44,imu_link,0.0025014898502288985,0.0054897780758952144,-0.008247064180080834,-0.0001907173929603468,0.00010359795723527633,9.799686482248669,-4.615570793976601e-10,5.3304847850866057e-08,-4.98910556063868e-08,0.9999999999999973,0.0;0.0;0.0;0.0;0.0;0.0;0.0;0.0;0.0,7.621289842063561e-05;0.0;0.0;0.0;7.621289842063561e-05;0.0;0.0;0.0;7.621289842063561e-05,3.999999975690116e-08;0.0;0.0;0.0;3.999999975690116e-08;0.0;0.0;0.0;3.999999975690116e-08
29,460000000,29.46,imu_link,-0.00010135692010024294,0.005760032266838332,-0.012649014975793094,0.00014343316211407335,0.00014489401916593827,9.800175932875298,-4.6155707938546935e-10,5.330484785035168e-08,-4.989105560640046e-08,0.9999999999999973,0.0;0.0;0.0;0.0;0.0;0.0;0.0;0.0;0.0,7.621289842063561e-05;0.0;0.0;0.0;7.621289842063561e-05;0.0;0.0;0.0;7.621289842063561e-05,3.999999975690116e-08;0.0;0.0;0.0;3.999999975690116e-08;0.0;0.0;0.0;3.999999975690116e-08
29,480000000,29.48,imu_link,-0.007169185448401152,0.006720323471061664,-0.007819729423138593,1.6292102636233916e-05,-0.00016109629721610324,9.79989930841709,-4.615570794496997e-10,5.3304847850662266e-08,-4.9891055606414254e-08,0.9999999999999973,0.0;0.0;0.0;0.0;0.0;0.0;0.0;0.0;0.0,7.621289842063561e-05;0.0;0.0;0.0;7.621289842063561e-05;0.0;0.0;0.0;7.621289842063561e-05,3.999999975690116e-08;0.0;0.0;0.0;3.999999975690116e-08;0.0;0.0;0.0;3.999999975690116e-08
29,500000000,29.5,imu_link,-0.013018596867084094,0.00768138821593338,-0.0035888828025008625,-3.826642725603489e-05,-1.9580132191793128e-05,9.799733661841907,-4.6155707952064767e-10,5.330484785085435e-08,-4.9891055606428594e-08,0.9999999999999973,0.0;0.0;0.0;0.0;0.0;0.0;0.0;0.0;0.0,7.621289842063561e-05;0.0;0.0;0.0;7.621289842063561e-05;0.0;0.0;0.0;7.621289842063561e-05,3.999999975690116e-08;0.0;0.0;0.0;3.999999975690116e-08;0.0;0.0;0.0;3.999999975690116e-08
29,520000000,29.52,imu_link,0.006122397232630189,-0.0038718839777307943,0.011628035335580118,0.00014472412311879488,0.0003323580729893548,9.800124838073929,-4.615570793788446e-10,5.3304847850345244e-08,-4.989105560644327e-08,0.9999999999999973,0.0;0.0;0.0;0.0;0.0;0.0;0.0;0.0;0.0,7.621289842063561e-05;0.0;0.0;0.0;7.621289842063561e-05;0.0;0.0;0.0;7.621289842063561e-05,3.999999975690116e-08;0.0;0.0;0.0;3.999999975690116e-08;0.0;0.0;0.0;3.999999975690116e-08
29,540000000,29.54,imu_link,0.0011552577073811255,0.009584255490942368,-0.008234211314024511,0.00021332579923979711,0.0003092629622302628,9.800042639360594,-4.615570795724642e-10,5.330484785052147e-08,-4.9891055606456705e-08,0.9999999999999973,0.0;0.0;0.0;0.0;0.0;0.0;0.0;0.0;0.0,7.621289842063561e-05;0.0;0.0;0.0;7.621289842063561e-05;0.0;0.0;0.0;7.621289842063561e-05,3.999999975690116e-08;0.0;0.0;0.0;3.999999975690116e-08;0.0;0.0;0.0;3.999999975690116e-08
29,560000000,29.56,imu_link,-0.016429149000723547,-0.009970558384682917,0.01932969701340537,0.00012385549393290453,3.2949292049082176e-05,9.799962563306734,-4.615570795254595e-10,5.330484785065916e-08,-4.98910556064719e-08,0.9999999999999973,0.0;0.0;0.0;0.0;0.0;0.0;0.0;0.0;0.0,7.621289842063561e-05;0.0;0.0;0.0;7.621289842063561e-05;0.0;0.0;0.0;7.621289842063561e-05,3.999999975690116e-08;0.0;0.0;0.0;3.999999975690116e-08;0.0;0.0;0.0;3.999999975690116e-08
29,580000000,29.58,imu_link,0.005171458458994137,-0.010671084112001308,0.017225376031805205,0.000405871135926407,-3.099293575797465e-05,9.799990787996881,-4.6155707969937044e-10,5.330484785090579e-08,-4.9891055606485696e-08,0.9999999999999973,0.0;0.0;0.0;0.0;0.0;0.0;0.0;0.0;0.0,7.621289842063561e-05;0.0;0.0;0.0;7.621289842063561e-05;0.0;0.0;0.0;7.621289842063561e-05,3.999999975690116e-08;0.0;0.0;0.0;3.999999975690116e-08;0.0;0.0;0.0;3.999999975690116e-08
29,600000000,29.6,imu_link,0.004935080890697591,0.011896662207474462,-0.0033996135420905666,0.00020009457763267888,0.0005823133996293099,9.800093383279666,-4.61557079421926e-10,5.330484785052175e-08,-4.989105560649871e-08,0.9999999999999973,0.0;0.0;0.0;0.0;0.0;0.0;0.0;0.0;0.0,7.621289842063561e-05;0.0;0.0;0.0;7.621289842063561e-05;0.0;0.0;0.0;7.621289842063561e-05,3.999999975690116e-08;0.0;0.0;0.0;3.999999975690116e-08;0.0;0.0;0.0;3.999999975690116e-08
29,620000000,29.62,imu_link,-0.0002513362185935697,-0.003311096120119077,-0.012596795657744492,-0.00010387427787580773,0.00012901703992870361,9.800005133900349,-4.6155707963420163e-10,5.330484785070262e-08,-4.9891055606513866e-08,0.9999999999999973,0.0;0.0;0.0;0.0;0.0;0.0;0.0;0.0;0.0,7.621289842063561e-05;0.0;0.0;0.0;7.621289842063561e-05;0.0;0.0;0.0;7.621289842063561e-05,3.999999975690116e-08;0.0;0.0;0.0;3.999999975690116e-08;0.0;0.0;0.0;3.999999975690116e-08
29,640000000,29.64,imu_link,0.0016806303655382477,-0.013062242784391507,0.0012299864908228255,-0.0001761963313550648,0.0003785386215184734,9.800167859075641,-4.61557079464481e-10,5.330484785083439e-08,-4.9891055606527253e-08,0.9999999999999973,0.0;0.0;0.0;0.0;0.0;0.0;0.0;0.0;0.0,7.621289842063561e-05;0.0;0.0;0.0;7.621289842063561e-05;0.0;0.0;0.0;7.621289842063561e-05,3.999999975690116e-08;0.0;0.0;0.0;3.999999975690116e-08;0.0;0.0;0.0;3.999999975690116e-08
29,660000000,29.66,imu_link,0.0036657025924604165,0.014083994135990853,0.017380887639940716,8.020985491499478e-05,-0.00011170510010536017,9.799806101513656,-4.615570794687862e-10,5.330484785030704e-08,-4.9891055606539436e-08,0.9999999999999973,0.0;0.0;0.0;0.0;0.0;0.0;0.0;0.0;0.0,7.621289842063561e-05;0.0;0.0;0.0;7.621289842063561e-05;0.0;0.0;0.0;7.621289842063561e-05,3.999999975690116e-08;0.0;0.0;0.0;3.999999975690116e-08;0.0;0.0;0.0;3.999999975690116e-08
29,680000000,29.68,imu_link,0.005108821655939172,0.0048355475998577025,-0.0025201378830046984,0.00012112136836166763,0.0001177494265976072,9.800046160617125,-4.615570793933676e-10,5.330484785061873e-08,-4.9891055606554464e-08,0.9999999999999973,0.0;0.0;0.0;0.0;0.0;0.0;0.0;0.0;0.0,7.621289842063561e-05;0.0;0.0;0.0;7.621289842063561e-05;0.0;0.0;0.0;7.621289842063561e-05,3.999999975690116e-08;0.0;0.0;0.0;3.999999975690116e-08;0.0;0.0;0.0;3.999999975690116e-08
29,700000000,29.7,imu_link,0.015777202600564748,-0.002954069465563593,0.0030053403546857313,-0.00015988697212193263,0.00026650316078660177,9.800109118978364,-4.615570794770648e-10,5.330484785079585e-08,-4.989105560656779e-08,0.9999999999999973,0.0;0.0;0.0;0.0;0.0;0.0;0.0;0.0;0.0,7.621289842063561e-05;0.0;0.0;0.0;7.621289842063561e-05;0.0;0.0;0.0;7.621289842063561e-05,3.999999975690116e-08;0.0;0.0;0.0;3.999999975690116e-08;0.0;0.0;0.0;3.999999975690116e-08
29,720000000,29.72,imu_link,0.012574379688152773,-0.0007606984218683412,0.0027091765099038906,0.00012023759151673762,-0.0003308001594023783,9.79984911347298,-4.6155707945017514e-10,5.330484785080588e-08,-4.989105560658127e-08,0.9999999999999973,0.0;0.0;0.0;0.0;0.0;0.0;0.0;0.0;0.0,7.621289842063561e-05;0.0;0.0;0.0;7.621289842063561e-05;0.0;0.0;0.0;7.621289842063561e-05,3.999999975690116e-08;0.0;0.0;0.0;3.999999975690116e-08;0.0;0.0;0.0;3.999999975690116e-08
29,740000000,29.74,imu_link,-0.005189044852910032,0.006244533346751987,0.009351800148890489,-0.0001443941941864314,4.065241384154087e-05,9.800144498519888,-4.615570794046589e-10,5.330484785035173e-08,-4.989105560659537e-08,0.9999999999999973,0.0;0.0;0.0;0.0;0.0;0.0;0.0;0.0;0.0,7.621289842063561e-05;0.0;0.0;0.0;7.621289842063561e-05;0.0;0.0;0.0;7.621289842063561e-05,3.999999975690116e-08;0.0;0.0;0.0;3.999999975690116e-08;0.0;0.0;0.0;3.999999975690116e-08
29,760000000,29.76,imu_link,-0.0014697273432206833,0.00804426564347975,-0.005965406046516382,-0.00015901936331071419,6.882679383827389e-05,9.800246889313048,-4.6155707945229045e-10,5.3304847850644465e-08,-4.989105560661037e-08,0.9999999999999973,0.0;0.0;0.0;0.0;0.0;0.0;0.0;0.0;0.0,7.621289842063561e-05;0.0;0.0;0.0;7.621289842063561e-05;0.0;0.0;0.0;7.621289842063561e-05,3.999999975690116e-08;0.0;0.0;0.0;3.999999975690116e-08;0.0;0.0;0.0;3.999999975690116e-08
29,780000000,29.78,imu_link,0.0010935724932737384,0.0037452013025141948,0.016071073300567708,5.999082335199367e-05,0.0001547530949945427,9.79968970959958,-4.6155707940599356e-10,5.3304847850302144e-08,-4.9891055606623e-08,0.9999999999999973,0.0;0.0;0.0;0.0;0.0;0.0;0.0;0.0;0.0,7.621289842063561e-05;0.0;0.0;0.0;7.621289842063561e-05;0.0;0.0;0.0;7.621289842063561e-05,3.999999975690116e-08;0.0;0.0;0.0;3.999999975690116e-08;0.0;0.0;0.0;3.999999975690116e-08
29,800000000,29.8,imu_link,-0.007805625842878366,-0.006233310807192038,-0.010769156033693753,0.00018723840922245627,0.0003724758553978252,9.799765374624304,-4.6155707960483605e-10,5.330484785047623e-08,-4.989105560663573e-08,0.9999999999999973,0.0;0.0;0.0;0.0;0.0;0.0;0.0;0.0;0.0,7.621289842063561e-05;0.0;0.0;0.0;7.621289842063561e-05;0.0;0.0;0.0;7.621289842063561e-05,3.999999975690116e-08;0.0;0.0;0.0;3.999999975690116e-08;0.0;0.0;0.0;3.999999975690116e-08
29,820000000,29.82,imu_link,0.0007084445889550637,0.012062220160327236,-0.012116168852344966,-0.00016894643028797637,0.00044693701209388287,9.800064050443009,-4.6155707943749963e-10,5.330484785060638e-08,-4.9891055606650305e-08,0.9999999999999973,0.0;0.0;0.0;0.0;0.0;0.0;0.0;0.0;0.0,7.621289842063561e-05;0.0;0.0;0.0;7.621289842063561e-05;0.0;0.0;0.0;7.621289842063561e-05,3.999999975690116e-08;0.0;0.0;0.0;3.999999975690116e-08;0.0;0.0;0.0;3.999999975690116e-08
29,840000000,29.84,imu_link,-0.002543543484251831,0.01010821681889603,-0.00035564474936385847,0.0004919621441989415,0.00014386220850569172,9.800353511194043,-4.615570793900603e-10,5.330484785073509e-08,-4.9891055606663586e-08,0.9999999999999973,0.0;0.0;0.0;0.0;0.0;0.0;0.0;0.0;0.0,7.621289842063561e-05;0.0;0.0;0.0;7.621289842063561e-05;0.0;0.0;0.0;7.621289842063561e-05,3.999999975690116e-08;0.0;0.0;0.0;3.999999975690116e-08;0.0;0.0;0.0;3.999999975690116e-08
29,860000000,29.86,imu_link,-0.007552420690135309,-0.010375296316605206,0.0014057743943565301,0.00031810808542235885,-9.642818334164905e-05,9.799863360466155,-4.6155707959744064e-10,5.33048478503313e-08,-4.989105560667646e-08,0.9999999999999973,0.0;0.0;0.0;0.0;0.0;0.0;0.0;0.0;0.0,7.621289842063561e-05;0.0;0.0;0.0;7.621289842063561e-05;0.0;0.0;0.0;7.621289842063561e-05,3.999999975690116e-08;0.0;0.0;0.0;3.999999975690116e-08;0.0;0.0;0.0;3.999999975690116e-08
29,880000000,29.88,imu_link,-0.010413655977914847,0.007719183105273586,0.0002674671185684715,0.0001754570278587007,0.0001566891040700565,9.800169229094179,-4.6155707956278896e-10,5.330484785045262e-08,-4.989105560669078e-08,0.9999999999999973,0.0;0.0;0.0;0.0;0.0;0.0;0.0;0.0;0.0,7.621289842063561e-05;0.0;0.0;0.0;7.621289842063561e-05;0.0;0.0;0.0;7.621289842063561e-05,3.999999975690116e-08;0.0;0.0;0.0;3.999999975690116e-08;0.0;0.0;0.0;3.999999975690116e-08
29,900000000,29.9,imu_link,-0.0025804212573595324,-7.5603255261214145e-06,0.0007258496756129618,-2.5298645613081267e-05,-0.0004561781632438546,9.799710194010059,-4.6155707952925123e-10,5.3304847850575306e-08,-4.989105560670459e-08,0.9999999999999973,0.0;0.0;0.0;0.0;0.0;0.0;0.0;0.0;0.0,7.621289842063561e-05;0.0;0.0;0.0;7.621289842063561e-05;0.0;0.0;0.0;7.621289842063561e-05,3.999999975690116e-08;0.0;0.0;0.0;3.999999975690116e-08;0.0;0.0;0.0;3.999999975690116e-08
29,920000000,29.92,imu_link,0.01700685990466371,0.00424811722948008,-0.004638237738005958,2.11796672878072e-05,0.00011762232731077663,9.800011443581212,-4.6155707956432643e-10,5.3304847850293674e-08,-4.989105560671694e-08,0.9999999999999973,0.0;0.0;0.0;0.0;0.0;0.0;0.0;0.0;0.0,7.621289842063561e-05;0.0;0.0;0.0;7.621289842063561e-05;0.0;0.0;0.0;7.621289842063561e-05,3.999999975690116e-08;0.0;0.0;0.0;3.999999975690116e-08;0.0;0.0;0.0;3.999999975690116e-08
29,940000000,29.94,imu_link,-0.007793201817181925,-0.006119166064364489,0.0035062048955585194,1.8060483275320736e-05,4.959812825026256e-05,9.799664148706098,-4.615570793900448e-10,5.330484785043257e-08,-4.98910556067299e-08,0.9999999999999973,0.0;0.0;0.0;0.0;0.0;0.0;0.0;0.0;0.0,7.621289842063561e-05;0.0;0.0;0.0;7.621289842063561e-05;0.0;0.0;0.0;7.621289842063561e-05,3.999999975690116e-08;0.0;0.0;0.0;3.999999975690116e-08;0.0;0.0;0.0;3.999999975690116e-08
29,960000000,29.96,imu_link,-0.020524270282757794,-0.011074300551315815,-0.004865301004778353,0.00021903342708465328,-0.00014481025057844183,9.799902221650711,-4.615570796046338e-10,5.3304847850603423e-08,-4.989105560674174e-08,0.9999999999999973,0.0;0.0;0.0;0.0;0.0;0.0;0.0;0.0;0.0,7.621289842063561e-05;0.0;0.0;0.0;7.621289842063561e-05;0.0;0.0;0.0;7.621289842063561e-05,3.999999975690116e-08;0.0;0.0;0.0;3.999999975690116e-08;0.0;0.0;0.0;3.999999975690116e-08
29,980000000,29.98,imu_link,-0.010253172270901377,0.00986071970607806,0.006854633385294005,-0.00015763756216784106,0.00030363663137508777,9.800191516151019,-4.6155707967955377e-10,5.330484785090557e-08,-4.9891055606755635e-08,0.9999999999999973,0.0;0.0;0.0;0.0;0.0;0.0;0.0;0.0;0.0,7.621289842063561e-05;0.0;0.0;0.0;7.621289842063561e-05;0.0;0.0;0.0;7.621289842063561e-05,3.999999975690116e-08;0.0;0.0;0.0;3.999999975690116e-08;0.0;0.0;0.0;3.999999975690116e-08
30,0,30.0,imu_link,-0.011078705473188743,0.004289946964999736,-0.01094351543803699,-0.00019612924487736786,-5.965996910311634e-05,9.799933085196637,-4.6155707952819497e-10,5.3304847850266265e-08,-4.989105560676751e-08,0.9999999999999973,0.0;0.0;0.0;0.0;0.0;0.0;0.0;0.0;0.0,7.621289842063561e-05;0.0;0.0;0.0;7.621289842063561e-05;0.0;0.0;0.0;7.621289842063561e-05,3.999999975690116e-08;0.0;0.0;0.0;3.999999975690116e-08;0.0;0.0;0.0;3.999999975690116e-08
30,20000000,30.02,imu_link,-0.0012846841596914661,0.0016413930081902216,-0.005893249196557644,0.0002229999852310269,9.365383015685644e-06,9.800198296239614,-4.6155707958221266e-10,5.330484785045106e-08,-4.9891055606779696e-08,0.9999999999999973,0.0;0.0;0.0;0.0;0.0;0.0;0.0;0.0;0.0,7.621289842063561e-05;0.0;0.0;0.0;7.621289842063561e-05;0.0;0.0;0.0;7.621289842063561e-05,3.999999975690116e-08;0.0;0.0;0.0;3.999999975690116e-08;0.0;0.0;0.0;3.999999975690116e-08
30,40000000,30.04,imu_link,0.017113147644634945,-0.01433274650615791,-0.002359484901518303,6.106027370235971e-05,0.00018205514007188525,9.79976852261309,-4.6155707937856126e-10,5.330484785059322e-08,-4.989105560679135e-08,0.9999999999999973,0.0;0.0;0.0;0.0;0.0;0.0;0.0;0.0;0.0,7.621289842063561e-05;0.0;0.0;0.0;7.621289842063561e-05;0.0;0.0;0.0;7.621289842063561e-05,3.999999975690116e-08;0.0;0.0;0.0;3.999999975690116e-08;0.0;0.0;0.0;3.999999975690116e-08
30,60000000,30.06,imu_link,-0.0060449542159239835,0.004390811540744676,0.01556123088576705,0.00013806685453453672,0.0002740408562261002,9.799593254547109,-4.6155707943735095e-10,5.3304847850790545e-08,-4.9891055606803485e-08,0.9999999999999973,0.0;0.0;0.0;0.0;0.0;0.0;0.0;0.0;0.0,7.621289842063561e-05;0.0;0.0;0.0;7.621289842063561e-05;0.0;0.0;0.0;7.621289842063561e-05,3.999999975690116e-08;0.0;0.0;0.0;3.999999975690116e-08;0.0;0.0;0.0;3.999999975690116e-08
30,80000000,30.08,imu_link,0.00243931736859613,0.024243025775214925,-0.010737410480359165,0.00011083047297308728,-4.296821834553394e-05,9.799780871793212,-4.615570795070128e-10,5.330484785050265e-08,-4.989105560681672e-08,0.9999999999999973,0.0;0.0;0.0;0.0;0.0;0.0;0.0;0.0;0.0,7.621289842063561e-05;0.0;0.0;0.0;7.621289842063561e-05;0.0;0.0;0.0;7.621289842063561e-05,3.999999975690116e-08;0.0;0.0;0.0;3.999999975690116e-08;0.0;0.0;0.0;3.999999975690116e-08
30,100000000,30.1,imu_link,-0.0073116373501113255,-0.012061070449620105,-0.002659845408494528,3.7219508800113245e-05,-3.929028920851915e-06,9.799900059276801,-4.615570795579386e-10,5.330484785075785e-08,-4.989105560682908e-08,0.9999999999999973,0.0;0.0;0.0;0.0;0.0;0.0;0.0;0.0;0.0,7.621289842063561e-05;0.0;0.0;0.0;7.621289842063561e-05;0.0;0.0;0.0;7.621289842063561e-05,3.999999975690116e-08;0.0;0.0;0.0;3.999999975690116e-08;0.0;0.0;0.0;3.999999975690116e-08
30,120000000,30.12,imu_link,-0.014581720498323462,0.0011421961139753856,0.0014137844779075943,-4.056447581104344e-05,0.00013292117841163725,9.799902400904678,-4.6155707950964974e-10,5.3304847850764836e-08,-4.989105560684263e-08,0.9999999999999973,0.0;0.0;0.0;0.0;0.0;0.0;0.0;0.0;0.0,7.621289842063561e-05;0.0;0.0;0.0;7.621289842063561e-05;0.0;0.0;0.0;7.621289842063561e-05,3.999999975690116e-08;0.0;0.0;0.0;3.999999975690116e-08;0.0;0.0;0.0;3.999999975690116e-08
30,140000000,30.14,imu_link,0.006057845795971487,-0.004429998356766348,0.00207925490860945,0.00033302339045843175,-0.00011269599821880788,9.799929439350532,-4.615570795865098e-10,5.330484785047897e-08,-4.989105560685726e-08,0.9999999999999973,0.0;0.0;0.0;0.0;0.0;0.0;0.0;0.0;0.0,7.621289842063561e-05;0.0;0.0;0.0;7.621289842063561e-05;0.0;0.0;0.0;7.621289842063561e-05,3.999999975690116e-08;0.0;0.0;0.0;3.999999975690116e-08;0.0;0.0;0.0;3.999999975690116e-08
30,160000000,30.16,imu_link,-0.00041194710186277436,0.002970508173360196,0.01241280890527552,-7.136149842895037e-05,-0.0003685866427937413,9.799830628620331,-4.615570794136875e-10,5.3304847850611894e-08,-4.989105560687057e-08,0.9999999999999973,0.0;0.0;0.0;0.0;0.0;0.0;0.0;0.0;0.0,7.621289842063561e-05;0.0;0.0;0.0;7.621289842063561e-05;0.0;0.0;0.0;7.621289842063561e-05,3.999999975690116e-08;0.0;0.0;0.0;3.999999975690116e-08;0.0;0.0;0.0;3.999999975690116e-08
30,180000000,30.18,imu_link,-0.0033329347567949297,0.0058983026583198615,-0.010579362367470625,2.098396959728969e-05,0.000437379056778022,9.800089267667897,-4.615570793744315e-10,5.33048478507369e-08,-4.989105560688339e-08,0.9999999999999973,0.0;0.0;0.0;0.0;0.0;0.0;0.0;0.0;0.0,7.621289842063561e-05;0.0;0.0;0.0;7.621289842063561e-05;0.0;0.0;0.0;7.621289842063561e-05,3.999999975690116e-08;0.0;0.0;0.0;3.999999975690116e-08;0.0;0.0;0.0;3.999999975690116e-08
30,200000000,30.2,imu_link,-0.0031935507911788823,-0.006232581000919423,0.00317199381542072,0.0003242230915488847,-8.71345973680126e-05,9.79981917378528,-4.6155707947831185e-10,5.330484785025764e-08,-4.9891055606897016e-08,0.9999999999999973,0.0;0.0;0.0;0.0;0.0;0.0;0.0;0.0;0.0,7.621289842063561e-05;0.0;0.0;0.0;7.621289842063561e-05;0.0;0.0;0.0;7.621289842063561e-05,3.999999975690116e-08;0.0;0.0;0.0;3.999999975690116e-08;0.0;0.0;0.0;3.999999975690116e-08
30,220000000,30.22,imu_link,-0.0017255380904618624,-0.011523317488563577,0.018823919084033133,7.562486610848766e-05,-3.5402206280706584e-05,9.799880753683398,-4.615570794067697e-10,5.3304847850445465e-08,-4.989105560691184e-08,0.9999999999999973,0.0;0.0;0.0;0.0;0.0;0.0;0.0;0.0;0.0,7.621289842063561e-05;0.0;0.0;0.0;7.621289842063561e-05;0.0;0.0;0.0;7.621289842063561e-05,3.999999975690116e-08;0.0;0.0;0.0;3.999999975690116e-08;0.0;0.0;0.0;3.999999975690116e-08
30,240000000,30.24,imu_link,-0.004122546731871665,-0.010702307166780098,0.009112904348270747,0.0003037757956552695,0.0001321780311649099,9.799838054157968,-4.615570793793806e-10,5.3304847850564844e-08,-4.989105560692576e-08,0.9999999999999973,0.0;0.0;0.0;0.0;0.0;0.0;0.0;0.0;0.0,7.621289842063561e-05;0.0;0.0;0.0;7.621289842063561e-05;0.0;0.0;0.0;7.621289842063561e-05,3.999999975690116e-08;0.0;0.0;0.0;3.999999975690116e-08;0.0;0.0;0.0;3.999999975690116e-08
30,260000000,30.26,imu_link,-0.001221742140217292,0.007131865999216811,-0.018714521652554942,-0.00016777005935251645,0.0002910449051135126,9.799985637511364,-4.615570796957473e-10,5.330484785091419e-08,-4.989105560694118e-08,0.9999999999999973,0.0;0.0;0.0;0.0;0.0;0.0;0.0;0.0;0.0,7.621289842063561e-05;0.0;0.0;0.0;7.621289842063561e-05;0.0;0.0;0.0;7.621289842063561e-05,3.999999975690116e-08;0.0;0.0;0.0;3.999999975690116e-08;0.0;0.0;0.0;3.999999975690116e-08
30,280000000,30.28,imu_link,-0.006687328023720894,-0.0015771229719118499,0.015011366838436959,5.590794051436262e-05,-0.00040522528160034997,9.800018969928617,-4.615570794472674e-10,5.3304847850339864e-08,-4.9891055606955204e-08,0.9999999999999973,0.0;0.0;0.0;0.0;0.0;0.0;0.0;0.0;0.0,7.621289842063561e-05;0.0;0.0;0.0;7.621289842063561e-05;0.0;0.0;0.0;7.621289842063561e-05,3.999999975690116e-08;0.0;0.0;0.0;3.999999975690116e-08;0.0;0.0;0.0;3.999999975690116e-08
30,300000000,30.3,imu_link,-0.0013414316918480271,0.003784837114465063,-0.017992000680332534,0.00029489198025528735,0.0005258205739267952,9.80008501833959,-4.6155707952811267e-10,5.330484785052066e-08,-4.989105560696998e-08,0.9999999999999973,0.0;0.0;0.0;0.0;0.0;0.0;0.0;0.0;0.0,7.621289842063561e-05;0.0;0.0;0.0;7.621289842063561e-05;0.0;0.0;0.0;7.621289842063561e-05,3.999999975690116e-08;0.0;0.0;0.0;3.999999975690116e-08;0.0;0.0;0.0;3.999999975690116e-08
30,320000000,30.32,imu_link,-0.007710781964302286,4.6086699953953426e-05,-0.007182860384885138,-5.090309881801117e-05,-9.100832598980785e-06,9.800084395222536,-4.615570796966103e-10,5.330484785087869e-08,-4.9891055606985624e-08,0.9999999999999973,0.0;0.0;0.0;0.0;0.0;0.0;0.0;0.0;0.0,7.621289842063561e-05;0.0;0.0;0.0;7.621289842063561e-05;0.0;0.0;0.0;7.621289842063561e-05,3.999999975690116e-08;0.0;0.0;0.0;3.999999975690116e-08;0.0;0.0;0.0;3.999999975690116e-08
30,340000000,30.34,imu_link,0.02630896019563679,0.006187622869382527,-0.003726486161889032,0.00011680865178756427,0.0005547589194234077,9.799607497188914,-4.6155707942686953e-10,5.330484785037382e-08,-4.9891055607000116e-08,0.9999999999999973,0.0;0.0;0.0;0.0;0.0;0.0;0.0;0.0;0.0,7.621289842063561e-05;0.0;0.0;0.0;7.621289842063561e-05;0.0;0.0;0.0;7.621289842063561e-05,3.999999975690116e-08;0.0;0.0;0.0;3.999999975690116e-08;0.0;0.0;0.0;3.999999975690116e-08
30,360000000,30.36,imu_link,0.009587303564918302,0.008213918435824495,-0.0049913904138207755,-0.00020214706039802048,0.0003184112461121985,9.799745604311333,-4.615570795094683e-10,5.3304847850427816e-08,-4.9891055607015125e-08,0.9999999999999973,0.0;0.0;0.0;0.0;0.0;0.0;0.0;0.0;0.0,7.621289842063561e-05;0.0;0.0;0.0;7.621289842063561e-05;0.0;0.0;0.0;7.621289842063561e-05,3.999999975690116e-08;0.0;0.0;0.0;3.999999975690116e-08;0.0;0.0;0.0;3.999999975690116e-08
30,380000000,30.38,imu_link,-0.0018228423303831493,-0.012693876948863614,0.011944165941704088,0.000285882198505498,0.0003432691340980704,9.79982721069821,-4.6155707947467473e-10,5.330484785055391e-08,-4.9891055607031437e-08,0.9999999999999973,0.0;0.0;0.0;0.0;0.0;0.0;0.0;0.0;0.0,7.621289842063561e-05;0.0;0.0;0.0;7.621289842063561e-05;0.0;0.0;0.0;7.621289842063561e-05,3.999999975690116e-08;0.0;0.0;0.0;3.999999975690116e-08;0.0;0.0;0.0;3.999999975690116e-08
30,400000000,30.4,imu_link,-0.006103554110159807,0.009356208511971251,-0.0100159079613106,-5.1162124042869234e-05,0.0002319270252888031,9.799867309809587,-4.6155707954381147e-10,5.330484785026852e-08,-4.9891055607045234e-08,0.9999999999999973,0.0;0.0;0.0;0.0;0.0;0.0;0.0;0.0;0.0,7.621289842063561e-05;0.0;0.0;0.0;7.621289842063561e-05;0.0;0.0;0.0;7.621289842063561e-05,3.999999975690116e-08;0.0;0.0;0.0;3.999999975690116e-08;0.0;0.0;0.0;3.999999975690116e-08
30,420000000,30.42,imu_link,0.0041177356603466385,0.0011129095042563106,0.0043256570934398384,-4.384169156331917e-06,9.080090830671799e-05,9.799688697055716,-4.615570796000984e-10,5.330484785056542e-08,-4.989105560705886e-08,0.9999999999999973,0.0;0.0;0.0;0.0;0.0;0.0;0.0;0.0;0.0,7.621289842063561e-05;0.0;0.0;0.0;7.621289842063561e-05;0.0;0.0;0.0;7.621289842063561e-05,3.999999975690116e-08;0.0;0.0;0.0;3.999999975690116e-08;0.0;0.0;0.0;3.999999975690116e-08
30,440000000,30.44,imu_link,-0.014481477555751316,0.008286716142466332,0.0025831532626197132,0.0003392596504992366,0.00016838631692483124,9.799987043327242,-4.6155707942882396e-10,5.330484785057289e-08,-4.989105560707262e-08,0.9999999999999973,0.0;0.0;0.0;0.0;0.0;0.0;0.0;0.0;0.0,7.621289842063561e-05;0.0;0.0;0.0;7.621289842063561e-05;0.0;0.0;0.0;7.621289842063561e-05,3.999999975690116e-08;0.0;0.0;0.0;3.999999975690116e-08;0.0;0.0;0.0;3.999999975690116e-08
30,460000000,30.46,imu_link,0.007318378749023435,0.007974542969851952,0.018955291183157794,0.00014352273393267753,3.1296864608778093e-05,9.800039289131464,-4.6155707939680597e-10,5.330484785071034e-08,-4.989105560708627e-08,0.9999999999999973,0.0;0.0;0.0;0.0;0.0;0.0;0.0;0.0;0.0,7.621289842063561e-05;0.0;0.0;0.0;7.621289842063561e-05;0.0;0.0;0.0;7.621289842063561e-05,3.999999975690116e-08;0.0;0.0;0.0;3.999999975690116e-08;0.0;0.0;0.0;3.999999975690116e-08
30,480000000,30.48,imu_link,0.00477526598226947,0.008765131830562992,0.0043291730609314755,0.0003020872970977783,8.860895914250254e-05,9.799707780993032,-4.6155707959615215e-10,5.330484785041401e-08,-4.989105560710071e-08,0.9999999999999973,0.0;0.0;0.0;0.0;0.0;0.0;0.0;0.0;0.0,7.621289842063561e-05;0.0;0.0;0.0;7.621289842063561e-05;0.0;0.0;0.0;7.621289842063561e-05,3.999999975690116e-08;0.0;0.0;0.0;3.999999975690116e-08;0.0;0.0;0.0;3.999999975690116e-08
30,500000000,30.5,imu_link,-0.005017898031232957,0.0016652573344876007,-0.00040439225231873904,-0.00016076713354485185,8.721654275804687e-05,9.800322032922594,-4.6155707941952035e-10,5.3304847850555586e-08,-4.989105560711429e-08,0.9999999999999973,0.0;0.0;0.0;0.0;0.0;0.0;0.0;0.0;0.0,7.621289842063561e-05;0.0;0.0;0.0;7.621289842063561e-05;0.0;0.0;0.0;7.621289842063561e-05,3.999999975690116e-08;0.0;0.0;0.0;3.999999975690116e-08;0.0;0.0;0.0;3.999999975690116e-08
30,520000000,30.52,imu_link,0.0014287384012875853,0.009518322581180771,-0.01442918793427333,0.00034234723070886874,0.00019295053823668802,9.799892204542429,-4.6155707938730337e-10,5.330484785068875e-08,-4.989105560712827e-08,0.9999999999999973,0.0;0.0;0.0;0.0;0.0;0.0;0.0;0.0;0.0,7.621289842063561e-05;0.0;0.0;0.0;7.621289842063561e-05;0.0;0.0;0.0;7.621289842063561e-05,3.999999975690116e-08;0.0;0.0;0.0;3.999999975690116e-08;0.0;0.0;0.0;3.999999975690116e-08
30,540000000,30.54,imu_link,-0.017241223768597526,-0.004393390751191727,0.004338293051866581,-0.00044450063460258957,-9.273043947366592e-05,9.800127917438918,-4.6155707971297383e-10,5.3304847850917646e-08,-4.989105560714301e-08,0.9999999999999973,0.0;0.0;0.0;0.0;0.0;0.0;0.0;0.0;0.0,7.621289842063561e-05;0.0;0.0;0.0;7.621289842063561e-05;0.0;0.0;0.0;7.621289842063561e-05,3.999999975690116e-08;0.0;0.0;0.0;3.999999975690116e-08;0.0;0.0;0.0;3.999999975690116e-08
30,560000000,30.56,imu_link,0.009704487820122969,0.007175608006192078,0.014346851820151618,0.00028949573867482114,0.000319166857155754,9.800131297482679,-4.615570795545531e-10,5.330484785039831e-08,-4.9891055607157115e-08,0.9999999999999973,0.0;0.0;0.0;0.0;0.0;0.0;0.0;0.0;0.0,7.621289842063561e-05;0.0;0.0;0.0;7.621289842063561e-05;0.0;0.0;0.0;7.621289842063561e-05,3.999999975690116e-08;0.0;0.0;0.0;3.999999975690116e-08;0.0;0.0;0.0;3.999999975690116e-08
30,580000000,30.58,imu_link,-0.006737684818500858,-0.004678890314319006,0.0001450368149582151,0.00013984951931965861,0.0001117664391397156,9.800173531935,-4.615570794828894e-10,5.330484785058468e-08,-4.989105560717153e-08,0.9999999999999973,0.0;0.0;0.0;0.0;0.0;0.0;0.0;0.0;0.0,7.621289842063561e-05;0.0;0.0;0.0;7.621289842063561e-05;0.0;0.0;0.0;7.621289842063561e-05,3.999999975690116e-08;0.0;0.0;0.0;3.999999975690116e-08;0.0;0.0;0.0;3.999999975690116e-08
30,600000000,30.6,imu_link,-0.011307800705824595,4.190574804246477e-05,0.0158059724645922,-0.000304719278333029,6.717799994797377e-05,9.799507901916252,-4.615570795704617e-10,5.3304847850299464e-08,-4.9891055607185894e-08,0.9999999999999973,0.0;0.0;0.0;0.0;0.0;0.0;0.0;0.0;0.0,7.621289842063561e-05;0.0;0.0;0.0;7.621289842063561e-05;0.0;0.0;0.0;7.621289842063561e-05,3.999999975690116e-08;0.0;0.0;0.0;3.999999975690116e-08;0.0;0.0;0.0;3.999999975690116e-08
30,620000000,30.62,imu_link,0.009195344298816209,-0.0060574212234151235,-0.016197122291715625,0.00017605001033172766,-9.11509009423105e-06,9.79994455666535,-4.615570795348455e-10,5.3304847850307326e-08,-4.989105560719935e-08,0.9999999999999973,0.0;0.0;0.0;0.0;0.0;0.0;0.0;0.0;0.0,7.621289842063561e-05;0.0;0.0;0.0;7.621289842063561e-05;0.0;0.0;0.0;7.621289842063561e-05,3.999999975690116e-08;0.0;0.0;0.0;3.999999975690116e-08;0.0;0.0;0.0;3.999999975690116e-08
30,640000000,30.64,imu_link,0.0009571042787293153,0.00502941073123538,0.007842871716407221,0.0002840490192734433,0.00018133917353874,9.800001935908066,-4.6155707946714677e-10,5.3304847850611894e-08,-4.9891055607213846e-08,0.9999999999999973,0.0;0.0;0.0;0.0;0.0;0.0;0.0;0.0;0.0,7.621289842063561e-05;0.0;0.0;0.0;7.621289842063561e-05;0.0;0.0;0.0;7.621289842063561e-05,3.999999975690116e-08;0.0;0.0;0.0;3.999999975690116e-08;0.0;0.0;0.0;3.999999975690116e-08
30,660000000,30.66,imu_link,0.007869448375948579,-5.309754790161791e-05,-0.0013010719178050366,7.056414704496969e-05,-0.00013477107271184403,9.799892122428261,-4.6155707967203217e-10,5.330484785066526e-08,-4.989105560722835e-08,0.9999999999999973,0.0;0.0;0.0;0.0;0.0;0.0;0.0;0.0;0.0,7.621289842063561e-05;0.0;0.0;0.0;7.621289842063561e-05;0.0;0.0;0.0;7.621289842063561e-05,3.999999975690116e-08;0.0;0.0;0.0;3.999999975690116e-08;0.0;0.0;0.0;3.999999975690116e-08
30,680000000,30.68,imu_link,-0.0003322839923391288,0.011035808958439034,-0.014762079246978355,7.985556063660675e-05,0.0004933604546362107,9.799710932863226,-4.6155707961779693e-10,5.330484785032988e-08,-4.989105560724077e-08,0.9999999999999973,0.0;0.0;0.0;0.0;0.0;0.0;0.0;0.0;0.0,7.621289842063561e-05;0.0;0.0;0.0;7.621289842063561e-05;0.0;0.0;0.0;7.621289842063561e-05,3.999999975690116e-08;0.0;0.0;0.0;3.999999975690116e-08;0.0;0.0;0.0;3.999999975690116e-08
30,700000000,30.7,imu_link,0.004934896179218163,-0.02010987532602458,-0.0009342004309819722,0.0001539868541740792,-0.0002829285226555198,9.800055184331795,-4.615570795847087e-10,5.330484785045603e-08,-4.989105560725438e-08,0.9999999999999973,0.0;0.0;0.0;0.0;0.0;0.0;0.0;0.0;0.0,7.621289842063561e-05;0.0;0.0;0.0;7.621289842063561e-05;0.0;0.0;0.0;7.621289842063561e-05,3.999999975690116e-08;0.0;0.0;0.0;3.999999975690116e-08;0.0;0.0;0.0;3.999999975690116e-08
30,720000000,30.72,imu_link,0.0044536135337911965,-0.006818910920145025,-0.010240168940595502,0.00011247482853155399,-0.00012867873687736877,9.799856775198442,-4.6155707965333287e-10,5.330484785075618e-08,-4.989105560726811e-08,0.9999999999999973,0.0;0.0;0.0;0.0;0.0;0.0;0.0;0.0;0.0,7.621289842063561e-05;0.0;0.0;0.0;7.621289842063561e-05;0.0;0.0;0.0;7.621289842063561e-05,3.999999975690116e-08;0.0;0.0;0.0;3.999999975690116e-08;0.0;0.0;0.0;3.999999975690116e-08
30,740000000,30.74,imu_link,0.0016474337987787057,0.01772558022642252,-0.0035201228782828797,0.00010731550898005343,0.00023335690553087798,9.799809309541109,-4.615570794730744e-10,5.3304847850773035e-08,-4.989105560728147e-08,0.9999999999999973,0.0;0.0;0.0;0.0;0.0;0.0;0.0;0.0;0.0,7.621289842063561e-05;0.0;0.0;0.0;7.621289842063561e-05;0.0;0.0;0.0;7.621289842063561e-05,3.999999975690116e-08;0.0;0.0;0.0;3.999999975690116e-08;0.0;0.0;0.0;3.999999975690116e-08
30,760000000,30.76,imu_link,0.0044479511677929595,0.008341114746248272,-0.00356005040264648,0.00022444605566202208,1.066616553354806e-05,9.799994659589872,-4.6155707942823537e-10,5.3304847850434566e-08,-4.9891055607294685e-08,0.9999999999999973,0.0;0.0;0.0;0.0;0.0;0.0;0.0;0.0;0.0,7.621289842063561e-05;0.0;0.0;0.0;7.621289842063561e-05;0.0;0.0;0.0;7.621289842063561e-05,3.999999975690116e-08;0.0;0.0;0.0;3.999999975690116e-08;0.0;0.0;0.0;3.999999975690116e-08
30,780000000,30.78,imu_link,-0.0010182259835837188,0.008908537379988904,-0.007612887502778315,0.0005074516069185111,0.00037447989995624493,9.799714472030484,-4.615570793854931e-10,5.330484785056889e-08,-4.989105560730876e-08,0.9999999999999973,0.0;0.0;0.0;0.0;0.0;0.0;0.0;0.0;0.0,7.621289842063561e-05;0.0;0.0;0.0;7.621289842063561e-05;0.0;0.0;0.0;7.621289842063561e-05,3.999999975690116e-08;0.0;0.0;0.0;3.999999975690116e-08;0.0;0.0;0.0;3.999999975690116e-08
30,800000000,30.8,imu_link,-0.006964776420597253,-0.0073029134836302785,0.007843752471083307,6.2107869409112e-05,-0.00014512997920153618,9.799766628702137,-4.61557079478604e-10,5.330484785074708e-08,-4.989105560732205e-08,0.9999999999999973,0.0;0.0;0.0;0.0;0.0;0.0;0.0;0.0;0.0,7.621289842063561e-05;0.0;0.0;0.0;7.621289842063561e-05;0.0;0.0;0.0;7.621289842063561e-05,3.999999975690116e-08;0.0;0.0;0.0;3.999999975690116e-08;0.0;0.0;0.0;3.999999975690116e-08
30,820000000,30.82,imu_link,0.005111210965448597,-0.016976106210387493,0.008828970812419365,-0.00016530742707326505,5.8820549827837274e-05,9.79982358207061,-4.6155707957661213e-10,5.3304847850403014e-08,-4.989105560733483e-08,0.9999999999999973,0.0;0.0;0.0;0.0;0.0;0.0;0.0;0.0;0.0,7.621289842063561e-05;0.0;0.0;0.0;7.621289842063561e-05;0.0;0.0;0.0;7.621289842063561e-05,3.999999975690116e-08;0.0;0.0;0.0;3.999999975690116e-08;0.0;0.0;0.0;3.999999975690116e-08
30,840000000,30.84,imu_link,-0.009122729327456348,-0.008237433253077003,0.013106331106358633,0.00011180200581341782,0.00012683075011813056,9.79996171066714,-4.615570793987344e-10,5.330484785053412e-08,-4.98910556073475e-08,0.9999999999999973,0.0;0.0;0.0;0.0;0.0;0.0;0.0;0.0;0.0,7.621289842063561e-05;0.0;0.0;0.0;7.621289842063561e-05;0.0;0.0;0.0;7.621289842063561e-05,3.999999975690116e-08;0.0;0.0;0.0;3.999999975690116e-08;0.0;0.0;0.0;3.999999975690116e-08
30,860000000,30.86,imu_link,-0.009768507487711024,-0.002909898687920876,-0.008610897311172242,0.00021001371830753191,0.00011831421750054108,9.800176816868031,-4.61557079478473e-10,5.3304847850702156e-08,-4.98910556073621e-08,0.9999999999999973,0.0;0.0;0.0;0.0;0.0;0.0;0.0;0.0;0.0,7.621289842063561e-05;0.0;0.0;0.0;7.621289842063561e-05;0.0;0.0;0.0;7.621289842063561e-05,3.999999975690116e-08;0.0;0.0;0.0;3.999999975690116e-08;0.0;0.0;0.0;3.999999975690116e-08
30,880000000,30.88,imu_link,0.004119819650423555,-0.012249936798587472,0.004167398170043535,-0.0001805729801865897,0.00022524229737766498,9.799884934068512,-4.615570795613964e-10,5.3304847850248834e-08,-4.9891055607374505e-08,0.9999999999999973,0.0;0.0;0.0;0.0;0.0;0.0;0.0;0.0;0.0,7.621289842063561e-05;0.0;0.0;0.0;7.621289842063561e-05;0.0;0.0;0.0;7.621289842063561e-05,3.999999975690116e-08;0.0;0.0;0.0;3.999999975690116e-08;0.0;0.0;0.0;3.999999975690116e-08
30,900000000,30.9,imu_link,0.0034229146105832484,-0.016244431067226645,0.013340844928674178,0.0003760380407422528,8.748810664725192e-05,9.7995839872709,-4.615570793957019e-10,5.33048478503865e-08,-4.9891055607386866e-08,0.9999999999999973,0.0;0.0;0.0;0.0;0.0;0.0;0.0;0.0;0.0,7.621289842063561e-05;0.0;0.0;0.0;7.621289842063561e-05;0.0;0.0;0.0;7.621289842063561e-05,3.999999975690116e-08;0.0;0.0;0.0;3.999999975690116e-08;0.0;0.0;0.0;3.999999975690116e-08
30,920000000,30.92,imu_link,-0.009248970168475498,-0.0017191236144849767,0.0008657042333350882,9.24483626705372e-05,-3.942461118053147e-05,9.799737947470637,-4.6155707950296953e-10,5.3304847850508e-08,-4.9891055607400015e-08,0.9999999999999973,0.0;0.0;0.0;0.0;0.0;0.0;0.0;0.0;0.0,7.621289842063561e-05;0.0;0.0;0.0;7.621289842063561e-05;0.0;0.0;0.0;7.621289842063561e-05,3.999999975690116e-08;0.0;0.0;0.0;3.999999975690116e-08;0.0;0.0;0.0;3.999999975690116e-08
30,940000000,30.94,imu_link,-0.005596969139882854,0.002273207418207848,0.0012539226809965684,-0.00020223474241272857,-7.740638323236581e-05,9.800144689726208,-4.615570796822454e-10,5.3304847850873084e-08,-4.989105560741304e-08,0.9999999999999973,0.0;0.0;0.0;0.0;0.0;0.0;0.0;0.0;0.0,7.621289842063561e-05;0.0;0.0;0.0;7.621289842063561e-05;0.0;0.0;0.0;7.621289842063561e-05,3.999999975690116e-08;0.0;0.0;0.0;3.999999975690116e-08;0.0;0.0;0.0;3.999999975690116e-08
30,960000000,30.96,imu_link,-0.001600214652450837,-0.0071691915245471974,0.0015481059050908626,0.00014097556427276366,-0.0001748798331363665,9.79960238477797,-4.615570795233975e-10,5.3304847850885e-08,-4.989105560742649e-08,0.9999999999999973,0.0;0.0;0.0;0.0;0.0;0.0;0.0;0.0;0.0,7.621289842063561e-05;0.0;0.0;0.0;7.621289842063561e-05;0.0;0.0;0.0;7.621289842063561e-05,3.999999975690116e-08;0.0;0.0;0.0;3.999999975690116e-08;0.0;0.0;0.0;3.999999975690116e-08
30,980000000,30.98,imu_link,0.004262109334207853,0.0015104454978365856,-0.009842079695297766,0.00017792856412995694,0.0002294828039451176,9.799983936939682,-4.615570796152286e-10,5.330484785042839e-08,-4.989105560743855e-08,0.9999999999999973,0.0;0.0;0.0;0.0;0.0;0.0;0.0;0.0;0.0,7.621289842063561e-05;0.0;0.0;0.0;7.621289842063561e-05;0.0;0.0;0.0;7.621289842063561e-05,3.999999975690116e-08;0.0;0.0;0.0;3.999999975690116e-08;0.0;0.0;0.0;3.999999975690116e-08
31,0,31.0,imu_link,0.0014006306475994649,0.003468754686082322,-0.003543696698723347,0.00037284392254125723,-0.00010966798221570004,9.799730090895832,-4.6155707940740825e-10,5.3304847850748365e-08,-4.9891055607450586e-08,0.9999999999999973,0.0;0.0;0.0;0.0;0.0;0.0;0.0;0.0;0.0,7.621289842063561e-05;0.0;0.0;0.0;7.621289842063561e-05;0.0;0.0;0.0;7.621289842063561e-05,3.999999975690116e-08;0.0;0.0;0.0;3.999999975690116e-08;0.0;0.0;0.0;3.999999975690116e-08
31,20000000,31.02,imu_link,0.020630543238403787,-0.006659722425076189,0.01396735544475366,5.22541351438089e-05,0.00010028830259321829,9.799958252575095,-4.615570795152507e-10,5.330484785028525e-08,-4.9891055607461094e-08,0.9999999999999973,0.0;0.0;0.0;0.0;0.0;0.0;0.0;0.0;0.0,7.621289842063561e-05;0.0;0.0;0.0;7.621289842063561e-05;0.0;0.0;0.0;7.621289842063561e-05,3.999999975690116e-08;0.0;0.0;0.0;3.999999975690116e-08;0.0;0.0;0.0;3.999999975690116e-08
31,40000000,31.04,imu_link,-0.01592337115047962,-0.0004951207185555292,0.010869670865016575,0.0001438872288956456,-0.000275210115691925,9.79983253123677,-4.6155707958288376e-10,5.330484785047361e-08,-4.989105560747196e-08,0.9999999999999973,0.0;0.0;0.0;0.0;0.0;0.0;0.0;0.0;0.0,7.621289842063561e-05;0.0;0.0;0.0;7.621289842063561e-05;0.0;0.0;0.0;7.621289842063561e-05,3.999999975690116e-08;0.0;0.0;0.0;3.999999975690116e-08;0.0;0.0;0.0;3.999999975690116e-08
31,60000000,31.06,imu_link,0.0076899399973109584,-0.00588586317482998,0.0002161907120788708,0.0002135136295644252,5.82580739147007e-05,9.799672704257759,-4.6155707955611175e-10,5.330484785059373e-08,-4.9891055607485565e-08,0.9999999999999973,0.0;0.0;0.0;0.0;0.0;0.0;0.0;0.0;0.0,7.621289842063561e-05;0.0;0.0;0.0;7.621289842063561e-05;0.0;0.0;0.0;7.621289842063561e-05,3.999999975690116e-08;0.0;0.0;0.0;3.999999975690116e-08;0.0;0.0;0.0;3.999999975690116e-08
31,80000000,31.08,imu_link,-0.0052205676080598305,-0.008771579848717577,0.005046200137845436,2.8782855603982422e-05,0.0002547658208155712,9.799831681345607,-4.615570794794261e-10,5.330484785079222e-08,-4.9891055607498383e-08,0.9999999999999973,0.0;0.0;0.0;0.0;0.0;0.0;0.0;0.0;0.0,7.621289842063561e-05;0.0;0.0;0.0;7.621289842063561e-05;0.0;0.0;0.0;7.621289842063561e-05,3.999999975690116e-08;0.0;0.0;0.0;3.999999975690116e-08;0.0;0.0;0.0;3.999999975690116e-08
