time_sec,time_nsec,timestamp,frame_id,angular_vel_x,angular_vel_y,angular_vel_z,linear_acc_x,linear_acc_y,linear_acc_z,orient_x,orient_y,orient_z,orient_w,orientation_covariance,angular_velocity_covariance,linear_acceleration_covariance
9,60000000,9.06,imu_link,0.006364165798434727,-0.011311477821180579,-0.020470035950895298,6.77683563218067e-05,-6.161937912182365e-06,9.79992749424324,-4.615570795526539e-10,5.3304847850353926e-08,-4.989105558954448e-08,0.9999999999999973,0.0;0.0;0.0;0.0;0.0;0.0;0.0;0.0;0.0,7.621289842063561e-05;0.0;0.0;0.0;7.621289842063561e-05;0.0;0.0;0.0;7.621289842063561e-05,3.999999975690116e-08;0.0;0.0;0.0;3.999999975690116e-08;0.0;0.0;0.0;3.999999975690116e-08
9,80000000,9.08,imu_link,-0.002359184974709954,-0.0007380981979128438,0.006239399283988477,5.0680499340877115e-05,2.7862258323305155e-05,9.79994208069047,-4.6155707952126537e-10,5.3304847850450534e-08,-4.98910555895586e-08,0.9999999999999973,0.0;0.0;0.0;0.0;0.0;0.0;0.0;0.0;0.0,7.621289842063561e-05;0.0;0.0;0.0;7.621289842063561e-05;0.0;0.0;0.0;7.621289842063561e-05,3.999999975690116e-08;0.0;0.0;0.0;3.999999975690116e-08;0.0;0.0;0.0;3.999999975690116e-08
9,100000000,9.1,imu_link,-0.0058417367179993416,-0.03604927076168662,-0.01744262697868193,0.00030006171655840984,6.92394838361293e-05,9.800212648498547,-4.6155707946262493e-10,5.330484785074151e-08,-4.989105558957239e-08,0.9999999999999973,0.0;0.0;0.0;0.0;0.0;0.0;0.0;0.0;0.0,7.621289842063561e-05;0.0;0.0;0.0;7.621289842063561e-05;0.0;0.0;0.0;7.621289842063561e-05,3.999999975690116e-08;0.0;0.0;0.0;3.999999975690116e-08;0.0;0.0;0.0;3.999999975690116e-08
9,120000000,9.12,imu_link,-0.0022059000155668267,-0.006603677870691028,-0.004784096022544118,-0.00014265776816642866,1.481125294225589e-05,9.79952974563952,-4.6155707941067794e-10,5.3304847850850036e-08,-4.989105558958426e-08,0.9999999999999973,0.0;0.0;0.0;0.0;0.0;0.0;0.0;0.0;0.0,7.621289842063561e-05;0.0;0.0;0.0;7.621289842063561e-05;0.0;0.0;0.0;7.621289842063561e-05,3.999999975690116e-08;0.0;0.0;0.0;3.999999975690116e-08;0.0;0.0;0.0;3.999999975690116e-08
9,140000000,9.14,imu_link,-0.008500778979747789,-0.014322179657145676,0.006188183265905071,-8.355142860287574e-05,0.00022065830103113322,9.799986863556153,-4.6155707961539547e-10,5.330484785053794e-08,-4.989105558959565e-08,0.9999999999999973,0.0;0.0;0.0;0.0;0.0;0.0;0.0;0.0;0.0,7.621289842063561e-05;0.0;0.0;0.0;7.621289842063561e-05;0.0;0.0;0.0;7.621289842063561e-05,3.999999975690116e-08;0.0;0.0;0.0;3.999999975690116e-08;0.0;0.0;0.0;3.999999975690116e-08
9,160000000,9.16,imu_link,0.0020879336113482725,-0.0022545049432039217,-0.0037658044232559734,1.6810440439555253e-05,0.0004774662325637947,9.799775434455626,-4.6155707956915587e-10,5.3304847850630356e-08,-4.989105558960842e-08,0.9999999999999973,0.0;0.0;0.0;0.0;0.0;0.0;0.0;0.0;0.0,7.621289842063561e-05;0.0;0.0;0.0;7.621289842063561e-05;0.0;0.0;0.0;7.621289842063561e-05,3.999999975690116e-08;0.0;0.0;0.0;3.999999975690116e-08;0.0;0.0;0.0;3.999999975690116e-08
9,180000000,9.18,imu_link,-0.0055924670522994255,-0.004268743655741923,-0.015948693094939816,-0.00012523809258256082,-0.0005818697941860486,9.799665338393941,-4.6155707953295555e-10,5.330484785027228e-08,-4.989105558962378e-08,0.9999999999999973,0.0;0.0;0.0;0.0;0.0;0.0;0.0;0.0;0.0,7.621289842063561e-05;0.0;0.0;0.0;7.621289842063561e-05;0.0;0.0;0.0;7.621289842063561e-05,3.999999975690116e-08;0.0;0.0;0.0;3.999999975690116e-08;0.0;0.0;0.0;3.999999975690116e-08
9,200000000,9.2,imu_link,-0.002067957452129027,0.008253048173352578,-0.0037830026283152485,-0.00014176782234936612,0.00030262947826220003,9.800110859282288,-4.6155707947899065e-10,5.330484785036421e-08,-4.9891055589638e-08,0.9999999999999973,0.0;0.0;0.0;0.0;0.0;0.0;0.0;0.0;0.0,7.621289842063561e-05;0.0;0.0;0.0;7.621289842063561e-05;0.0;0.0;0.0;7.621289842063561e-05,3.999999975690116e-08;0.0;0.0;0.0;3.999999975690116e-08;0.0;0.0;0.0;3.999999975690116e-08
9,220000000,9.22,imu_link,-0.011783742213654124,0.00706730524665463,0.013119654146177573,-8.924606895769843e-05,0.00018412048514640647,9.799998497707392,-4.615570796493551e-10,5.330484785069931e-08,-4.98910555896514e-08,0.9999999999999973,0.0;0.0;0.0;0.0;0.0;0.0;0.0;0.0;0.0,7.621289842063561e-05;0.0;0.0;0.0;7.621289842063561e-05;0.0;0.0;0.0;7.621289842063561e-05,3.999999975690116e-08;0.0;0.0;0.0;3.999999975690116e-08;0.0;0.0;0.0;3.999999975690116e-08
9,240000000,9.24,imu_link,0.006938412582376624,0.001205751229880462,-0.01738711279663725,0.00013430465214951483,7.902784038886772e-05,9.80019196954352,-4.6155707947798723e-10,5.330484785080205e-08,-4.98910555896672e-08,0.9999999999999973,0.0;0.0;0.0;0.0;0.0;0.0;0.0;0.0;0.0,7.621289842063561e-05;0.0;0.0;0.0;7.621289842063561e-05;0.0;0.0;0.0;7.621289842063561e-05,3.999999975690116e-08;0.0;0.0;0.0;3.999999975690116e-08;0.0;0.0;0.0;3.999999975690116e-08
9,260000000,9.26,imu_link,-0.004935276520441749,-0.003587727149969314,-0.00019129158976342214,-0.0003372496306579268,-0.00035608595666071757,9.79987290351608,-4.6155707944174876e-10,5.3304847850439324e-08,-4.989105558968214e-08,0.9999999999999973,0.0;0.0;0.0;0.0;0.0;0.0;0.0;0.0;0.0,7.621289842063561e-05;0.0;0.0;0.0;7.621289842063561e-05;0.0;0.0;0.0;7.621289842063561e-05,3.999999975690116e-08;0.0;0.0;0.0;3.999999975690116e-08;0.0;0.0;0.0;3.999999975690116e-08
9,280000000,9.28,imu_link,-0.006691796755516765,-0.008981000698878383,-0.0019957614131344745,-0.00013535017295637802,-8.439931098307403e-05,9.800093758390645,-4.615570794141421e-10,5.330484785054809e-08,-4.989105558969656e-08,0.9999999999999973,0.0;0.0;0.0;0.0;0.0;0.0;0.0;0.0;0.0,7.621289842063561e-05;0.0;0.0;0.0;7.621289842063561e-05;0.0;0.0;0.0;7.621289842063561e-05,3.999999975690116e-08;0.0;0.0;0.0;3.999999975690116e-08;0.0;0.0;0.0;3.999999975690116e-08
9,300000000,9.3,imu_link,-0.0006778060928362138,-0.0014288388766138058,0.011135575226660876,-0.0004278793257660665,6.474416353560689e-05,9.79996432746451,-4.6155707971377796e-10,5.3304847850892454e-08,-4.989105558971251e-08,0.9999999999999973,0.0;0.0;0.0;0.0;0.0;0.0;0.0;0.0;0.0,7.621289842063561e-05;0.0;0.0;0.0;7.621289842063561e-05;0.0;0.0;0.0;7.621289842063561e-05,3.999999975690116e-08;0.0;0.0;0.0;3.999999975690116e-08;0.0;0.0;0.0;3.999999975690116e-08
9,320000000,9.32,imu_link,0.010511478198803511,-0.010058017432884378,-0.006882535529129972,0.0002714455226515506,0.00017653216398725463,9.799893705869303,-4.615570794408857e-10,5.330484785038059e-08,-4.989105558972719e-08,0.9999999999999973,0.0;0.0;0.0;0.0;0.0;0.0;0.0;0.0;0.0,7.621289842063561e-05;0.0;0.0;0.0;7.621289842063561e-05;0.0;0.0;0.0;7.621289842063561e-05,3.999999975690116e-08;0.0;0.0;0.0;3.999999975690116e-08;0.0;0.0;0.0;3.999999975690116e-08
9,340000000,9.34,imu_link,0.0006812326105505615,0.007242180058233413,0.014091531151252031,-0.00013707162289099448,0.0003402712234660242,9.799934749020903,-4.6155707941369963e-10,5.3304847850483773e-08,-4.989105558974151e-08,0.9999999999999973,0.0;0.0;0.0;0.0;0.0;0.0;0.0;0.0;0.0,7.621289842063561e-05;0.0;0.0;0.0;7.621289842063561e-05;0.0;0.0;0.0;7.621289842063561e-05,3.999999975690116e-08;0.0;0.0;0.0;3.999999975690116e-08;0.0;0.0;0.0;3.999999975690116e-08
9,360000000,9.36,imu_link,-0.003609766318882911,-0.002523512439349913,-0.0033222117089926903,-1.8336491516570644e-07,-6.977845561158676e-05,9.799697019186338,-4.61557079485345e-10,5.330484785076441e-08,-4.989105558975601e-08,0.9999999999999973,0.0;0.0;0.0;0.0;0.0;0.0;0.0;0.0;0.0,7.621289842063561e-05;0.0;0.0;0.0;7.621289842063561e-05;0.0;0.0;0.0;7.621289842063561e-05,3.999999975690116e-08;0.0;0.0;0.0;3.999999975690116e-08;0.0;0.0;0.0;3.999999975690116e-08
9,380000000,9.38,imu_link,-0.0017560635176458218,0.006298960369203708,-0.0031150758815262558,-0.00043625904852777483,0.0001027644559336,9.799818348820295,-4.615570797056666e-10,5.330484785079423e-08,-4.98910555897693e-08,0.9999999999999973,0.0;0.0;0.0;0.0;0.0;0.0;0.0;0.0;0.0,7.621289842063561e-05;0.0;0.0;0.0;7.621289842063561e-05;0.0;0.0;0.0;7.621289842063561e-05,3.999999975690116e-08;0.0;0.0;0.0;3.999999975690116e-08;0.0;0.0;0.0;3.999999975690116e-08
9,400000000,9.4,imu_link,-0.007427216911267718,-0.004121698041394134,0.003653765563258193,0.00019730196662334472,0.00010569676024012873,9.799634840933724,-4.6155707954222597e-10,5.330484785045164e-08,-4.989105558978261e-08,0.9999999999999973,0.0;0.0;0.0;0.0;0.0;0.0;0.0;0.0;0.0,7.621289842063561e-05;0.0;0.0;0.0;7.621289842063561e-05;0.0;0.0;0.0;7.621289842063561e-05,3.999999975690116e-08;0.0;0.0;0.0;3.999999975690116e-08;0.0;0.0;0.0;3.999999975690116e-08
9,420000000,9.42,imu_link,0.00040298330124269674,-0.00970847926996106,0.0024135266477941395,-0.00018701340521143492,3.793767197728436e-05,9.800089297579405,-4.6155707961185607e-10,5.330484785061327e-08,-4.989105558979924e-08,0.9999999999999973,0.0;0.0;0.0;0.0;0.0;0.0;0.0;0.0;0.0,7.621289842063561e-05;0.0;0.0;0.0;7.621289842063561e-05;0.0;0.0;0.0;7.621289842063561e-05,3.999999975690116e-08;0.0;0.0;0.0;3.999999975690116e-08;0.0;0.0;0.0;3.999999975690116e-08
9,440000000,9.44,imu_link,0.006716289806107942,0.014877830697752153,0.006163396556080135,-2.897637892046738e-05,-3.7977960053574175e-05,9.799894615262282,-4.6155707957200204e-10,5.330484785025607e-08,-4.9891055589814956e-08,0.9999999999999973,0.0;0.0;0.0;0.0;0.0;0.0;0.0;0.0;0.0,7.621289842063561e-05;0.0;0.0;0.0;7.621289842063561e-05;0.0;0.0;0.0;7.621289842063561e-05,3.999999975690116e-08;0.0;0.0;0.0;3.999999975690116e-08;0.0;0.0;0.0;3.999999975690116e-08
9,460000000,9.46,imu_link,0.002723078955389624,-0.0037111542126456957,0.0052507679535316555,-0.00011462015585752454,0.00038365773120867957,9.800109799157935,-4.6155707951120287e-10,5.330484785054363e-08,-4.989105558983023e-08,0.9999999999999973,0.0;0.0;0.0;0.0;0.0;0.0;0.0;0.0;0.0,7.621289842063561e-05;0.0;0.0;0.0;7.621289842063561e-05;0.0;0.0;0.0;7.621289842063561e-05,3.999999975690116e-08;0.0;0.0;0.0;3.999999975690116e-08;0.0;0.0;0.0;3.999999975690116e-08
9,480000000,9.48,imu_link,0.00016700848809361843,0.007719321697196617,0.00014543825247649206,4.6742012692419944e-05,0.0001956435451166963,9.799850298288336,-4.6155707949228556e-10,5.330484785053596e-08,-4.989105558984537e-08,0.9999999999999973,0.0;0.0;0.0;0.0;0.0;0.0;0.0;0.0;0.0,7.621289842063561e-05;0.0;0.0;0.0;7.621289842063561e-05;0.0;0.0;0.0;7.621289842063561e-05,3.999999975690116e-08;0.0;0.0;0.0;3.999999975690116e-08;0.0;0.0;0.0;3.999999975690116e-08
9,500000000,9.5,imu_link,-0.002337495276037824,-0.00544510941602678,0.0006334123540709545,0.00013478080468325686,0.00023181747810316187,9.79998223525316,-4.6155707954190316e-10,5.330484785087445e-08,-4.989105558986061e-08,0.9999999999999973,0.0;0.0;0.0;0.0;0.0;0.0;0.0;0.0;0.0,7.621289842063561e-05;0.0;0.0;0.0;7.621289842063561e-05;0.0;0.0;0.0;7.621289842063561e-05,3.999999975690116e-08;0.0;0.0;0.0;3.999999975690116e-08;0.0;0.0;0.0;3.999999975690116e-08
9,520000000,9.52,imu_link,-0.005844348261809346,-0.01981938987760163,0.006872086935098566,-0.00021351434602024597,0.00042339319873235776,9.799759512450212,-4.6155707956163287e-10,5.33048478503205e-08,-4.989105558987533e-08,0.9999999999999973,0.0;0.0;0.0;0.0;0.0;0.0;0.0;0.0;0.0,7.621289842063561e-05;0.0;0.0;0.0;7.621289842063561e-05;0.0;0.0;0.0;7.621289842063561e-05,3.999999975690116e-08;0.0;0.0;0.0;3.999999975690116e-08;0.0;0.0;0.0;3.999999975690116e-08
9,540000000,9.54,imu_link,-0.014200952621152702,0.011018109219505095,-0.0069393764124408164,-0.00037425579695308565,-2.1941162561143636e-05,9.799854137135744,-4.6155707938458954e-10,5.330484785063207e-08,-4.989105558988923e-08,0.9999999999999973,0.0;0.0;0.0;0.0;0.0;0.0;0.0;0.0;0.0,7.621289842063561e-05;0.0;0.0;0.0;7.621289842063561e-05;0.0;0.0;0.0;7.621289842063561e-05,3.999999975690116e-08;0.0;0.0;0.0;3.999999975690116e-08;0.0;0.0;0.0;3.999999975690116e-08
9,560000000,9.56,imu_link,-0.006149202829634422,-0.004949069030901556,0.005075542244258392,-0.0001940881934714369,1.4393188195913656e-05,9.799813936716735,-4.6155707971796866e-10,5.330484785085762e-08,-4.989105558990307e-08,0.9999999999999973,0.0;0.0;0.0;0.0;0.0;0.0;0.0;0.0;0.0,7.621289842063561e-05;0.0;0.0;0.0;7.621289842063561e-05;0.0;0.0;0.0;7.621289842063561e-05,3.999999975690116e-08;0.0;0.0;0.0;3.999999975690116e-08;0.0;0.0;0.0;3.999999975690116e-08
9,580000000,9.58,imu_link,-0.0037487422416900206,-0.010085606867202317,0.002724475522137761,-0.0003980321652739613,6.755613216382531e-05,9.799786991962177,-4.6155707956087383e-10,5.3304847850400433e-08,-4.9891055589915124e-08,0.9999999999999973,0.0;0.0;0.0;0.0;0.0;0.0;0.0;0.0;0.0,7.621289842063561e-05;0.0;0.0;0.0;7.621289842063561e-05;0.0;0.0;0.0;7.621289842063561e-05,3.999999975690116e-08;0.0;0.0;0.0;3.999999975690116e-08;0.0;0.0;0.0;3.999999975690116e-08
9,600000000,9.6,imu_link,-0.0015844484889341647,0.004674887377189302,0.00971041190624851,-0.00019576476047243694,0.00021951975474498504,9.799605474116195,-4.6155707937593553e-10,5.330484785050103e-08,-4.9891055589927254e-08,0.9999999999999973,0.0;0.0;0.0;0.0;0.0;0.0;0.0;0.0;0.0,7.621289842063561e-05;0.0;0.0;0.0;7.621289842063561e-05;0.0;0.0;0.0;7.621289842063561e-05,3.999999975690116e-08;0.0;0.0;0.0;3.999999975690116e-08;0.0;0.0;0.0;3.999999975690116e-08
9,620000000,9.62,imu_link,0.00016495382848088542,-0.006991002823495173,-0.021613675146345903,5.7873458730720815e-05,-3.2402881032515734e-05,9.800153645450747,-4.6155707956911704e-10,5.3304847850645974e-08,-4.9891055589944605e-08,0.9999999999999973,0.0;0.0;0.0;0.0;0.0;0.0;0.0;0.0;0.0,7.621289842063561e-05;0.0;0.0;0.0;7.621289842063561e-05;0.0;0.0;0.0;7.621289842063561e-05,3.999999975690116e-08;0.0;0.0;0.0;3.999999975690116e-08;0.0;0.0;0.0;3.999999975690116e-08
9,640000000,9.64,imu_link,-0.003574153535916928,0.0004481070209162505,0.0041642344081187325,0.00011421170563576513,2.9535064374221795e-05,9.799947891637345,-4.615570795398496e-10,5.330484785027883e-08,-4.989105558996004e-08,0.9999999999999973,0.0;0.0;0.0;0.0;0.0;0.0;0.0;0.0;0.0,7.621289842063561e-05;0.0;0.0;0.0;7.621289842063561e-05;0.0;0.0;0.0;7.621289842063561e-05,3.999999975690116e-08;0.0;0.0;0.0;3.999999975690116e-08;0.0;0.0;0.0;3.999999975690116e-08
9,660000000,9.66,imu_link,0.0005257788968891228,-0.004064478634227103,-0.011273440212989837,-0.0004451010389850727,-0.00019436636133590902,9.799893614187711,-4.6155707950192677e-10,5.330484785036666e-08,-4.989105558997438e-08,0.9999999999999973,0.0;0.0;0.0;0.0;0.0;0.0;0.0;0.0;0.0,7.621289842063561e-05;0.0;0.0;0.0;7.621289842063561e-05;0.0;0.0;0.0;7.621289842063561e-05,3.999999975690116e-08;0.0;0.0;0.0;3.999999975690116e-08;0.0;0.0;0.0;3.999999975690116e-08
9,680000000,9.68,imu_link,-0.008198180392028676,0.010687839579934973,-0.0069305546357315406,4.897403079546616e-05,0.00021949454594890865,9.799981634662029,-4.615570796589375e-10,5.330484785069051e-08,-4.989105558998818e-08,0.9999999999999973,0.0;0.0;0.0;0.0;0.0;0.0;0.0;0.0;0.0,7.621289842063561e-05;0.0;0.0;0.0;7.621289842063561e-05;0.0;0.0;0.0;7.621289842063561e-05,3.999999975690116e-08;0.0;0.0;0.0;3.999999975690116e-08;0.0;0.0;0.0;3.999999975690116e-08
9,700000000,9.7,imu_link,-0.0069543981549480514,-0.007454859892866486,0.01690767722687572,-4.380984866480018e-06,0.00015016372269968734,9.800070773563661,-4.6155707939320515e-10,5.3304847850731306e-08,-4.9891055590001515e-08,0.9999999999999973,0.0;0.0;0.0;0.0;0.0;0.0;0.0;0.0;0.0,7.621289842063561e-05;0.0;0.0;0.0;7.621289842063561e-05;0.0;0.0;0.0;7.621289842063561e-05,3.999999975690116e-08;0.0;0.0;0.0;3.999999975690116e-08;0.0;0.0;0.0;3.999999975690116e-08
9,720000000,9.72,imu_link,0.00015772948313398573,-0.0036644393856332166,-0.004783535848378068,7.232571078792381e-05,-0.00029641612113709133,9.799877042346415,-4.6155707961340016e-10,5.3304847850424336e-08,-4.98910555900144e-08,0.9999999999999973,0.0;0.0;0.0;0.0;0.0;0.0;0.0;0.0;0.0,7.621289842063561e-05;0.0;0.0;0.0;7.621289842063561e-05;0.0;0.0;0.0;7.621289842063561e-05,3.999999975690116e-08;0.0;0.0;0.0;3.999999975690116e-08;0.0;0.0;0.0;3.999999975690116e-08
9,740000000,9.74,imu_link,-0.0004854186157801571,0.005157674544419389,0.013205639529162524,0.00020860807886037043,0.00043860241629378554,9.800149507464353,-4.615570794504289e-10,5.330484785053572e-08,-4.989105559002754e-08,0.9999999999999973,0.0;0.0;0.0;0.0;0.0;0.0;0.0;0.0;0.0,7.621289842063561e-05;0.0;0.0;0.0;7.621289842063561e-05;0.0;0.0;0.0;7.621289842063561e-05,3.999999975690116e-08;0.0;0.0;0.0;3.999999975690116e-08;0.0;0.0;0.0;3.999999975690116e-08
9,760000000,9.76,imu_link,-0.005947455633577013,0.010782558938688873,0.0061428701417224375,8.103085395413554e-05,7.193365938624376e-05,9.799856351722623,-4.6155707955739615e-10,5.3304847850674945e-08,-4.989105559003911e-08,0.9999999999999973,0.0;0.0;0.0;0.0;0.0;0.0;0.0;0.0;0.0,7.621289842063561e-05;0.0;0.0;0.0;7.621289842063561e-05;0.0;0.0;0.0;7.621289842063561e-05,3.999999975690116e-08;0.0;0.0;0.0;3.999999975690116e-08;0.0;0.0;0.0;3.999999975690116e-08
9,780000000,9.78,imu_link,-0.0025447986530068075,-0.015081722071321068,-0.0018740783415146587,0.0003077182320893482,0.00016614815350965472,9.799771454172397,-4.6155707953276525e-10,5.3304847850302125e-08,-4.989105559005187e-08,0.9999999999999973,0.0;0.0;0.0;0.0;0.0;0.0;0.0;0.0;0.0,7.621289842063561e-05;0.0;0.0;0.0;7.621289842063561e-05;0.0;0.0;0.0;7.621289842063561e-05,3.999999975690116e-08;0.0;0.0;0.0;3.999999975690116e-08;0.0;0.0;0.0;3.999999975690116e-08
9,800000000,9.8,imu_link,-0.00930377894863725,0.02253027356109169,0.009482381227978398,-0.0001588550810069257,1.825465845925544e-05,9.799820216745807,-4.615570796034211e-10,5.330484785057166e-08,-4.9891055590064956e-08,0.9999999999999973,0.0;0.0;0.0;0.0;0.0;0.0;0.0;0.0;0.0,7.621289842063561e-05;0.0;0.0;0.0;7.621289842063561e-05;0.0;0.0;0.0;7.621289842063561e-05,3.999999975690116e-08;0.0;0.0;0.0;3.999999975690116e-08;0.0;0.0;0.0;3.999999975690116e-08
9,820000000,9.82,imu_link,0.001874358334213477,-0.008094707757728766,-0.0029887027169308833,-0.00024811671975745643,0.00033415133968182155,9.80013740808251,-4.6155707944950606e-10,5.3304847850666726e-08,-4.989105559007911e-08,0.9999999999999973,0.0;0.0;0.0;0.0;0.0;0.0;0.0;0.0;0.0,7.621289842063561e-05;0.0;0.0;0.0;7.621289842063561e-05;0.0;0.0;0.0;7.621289842063561e-05,3.999999975690116e-08;0.0;0.0;0.0;3.999999975690116e-08;0.0;0.0;0.0;3.999999975690116e-08
9,840000000,9.84,imu_link,0.000265620752190232,0.017684898681138254,-0.00011939860136524743,-8.631383062591177e-05,-0.00025767834063140704,9.800337857891883,-4.6155707940216873e-10,5.330484785029979e-08,-4.9891055590090374e-08,0.9999999999999973,0.0;0.0;0.0;0.0;0.0;0.0;0.0;0.0;0.0,7.621289842063561e-05;0.0;0.0;0.0;7.621289842063561e-05;0.0;0.0;0.0;7.621289842063561e-05,3.999999975690116e-08;0.0;0.0;0.0;3.999999975690116e-08;0.0;0.0;0.0;3.999999975690116e-08
9,860000000,9.86,imu_link,0.006470970900169165,-0.014553422387000355,0.001939245866944834,0.00026516442071277427,-0.00017625062992878202,9.799825668060551,-4.615570796218609e-10,5.3304847850457906e-08,-4.989105559010417e-08,0.9999999999999973,0.0;0.0;0.0;0.0;0.0;0.0;0.0;0.0;0.0,7.621289842063561e-05;0.0;0.0;0.0;7.621289842063561e-05;0.0;0.0;0.0;7.621289842063561e-05,3.999999975690116e-08;0.0;0.0;0.0;3.999999975690116e-08;0.0;0.0;0.0;3.999999975690116e-08
9,880000000,9.88,imu_link,0.0001267324472579941,0.011180242867400488,-0.00828012174418442,-0.00013072147634255634,0.00022415243844076265,9.799924054020646,-4.6155707954610007e-10,5.330484785074059e-08,-4.989105559011687e-08,0.9999999999999973,0.0;0.0;0.0;0.0;0.0;0.0;0.0;0.0;0.0,7.621289842063561e-05;0.0;0.0;0.0;7.621289842063561e-05;0.0;0.0;0.0;7.621289842063561e-05,3.999999975690116e-08;0.0;0.0;0.0;3.999999975690116e-08;0.0;0.0;0.0;3.999999975690116e-08
9,900000000,9.9,imu_link,0.02023013407460774,0.005810075532207267,-0.011955448492738913,8.97299592512417e-06,-0.00036385925029397165,9.79958859228277,-4.6155707952696583e-10,5.3304847850837754e-08,-4.989105559013062e-08,0.9999999999999973,0.0;0.0;0.0;0.0;0.0;0.0;0.0;0.0;0.0,7.621289842063561e-05;0.0;0.0;0.0;7.621289842063561e-05;0.0;0.0;0.0;7.621289842063561e-05,3.999999975690116e-08;0.0;0.0;0.0;3.999999975690116e-08;0.0;0.0;0.0;3.999999975690116e-08
9,920000000,9.92,imu_link,0.007721116360128919,-0.004793518047194309,0.016677668058779703,-0.00012212518459538382,0.0001105068095079471,9.79981766441424,-4.61557079627367e-10,5.33048478504653e-08,-4.989105559014352e-08,0.9999999999999973,0.0;0.0;0.0;0.0;0.0;0.0;0.0;0.0;0.0,7.621289842063561e-05;0.0;0.0;0.0;7.621289842063561e-05;0.0;0.0;0.0;7.621289842063561e-05,3.999999975690116e-08;0.0;0.0;0.0;3.999999975690116e-08;0.0;0.0;0.0;3.999999975690116e-08
9,940000000,9.94,imu_link,0.0013604205955588015,-0.01879829531851005,0.004840541353806758,-0.00023470906968016105,0.00017895630779173608,9.800348377928113,-4.615570795846958e-10,5.330484785055329e-08,-4.9891055590155576e-08,0.9999999999999973,0.0;0.0;0.0;0.0;0.0;0.0;0.0;0.0;0.0,7.621289842063561e-05;0.0;0.0;0.0;7.621289842063561e-05;0.0;0.0;0.0;7.621289842063561e-05,3.999999975690116e-08;0.0;0.0;0.0;3.999999975690116e-08;0.0;0.0;0.0;3.999999975690116e-08
9,960000000,9.96,imu_link,0.01284070509456185,0.0040973012785873175,-0.023363100416766487,0.0003460013465302289,0.00016390567029503242,9.79981928984329,-4.6155707949295827e-10,5.330484785083933e-08,-4.989105559017034e-08,0.9999999999999973,0.0;0.0;0.0;0.0;0.0;0.0;0.0;0.0;0.0,7.621289842063561e-05;0.0;0.0;0.0;7.621289842063561e-05;0.0;0.0;0.0;7.621289842063561e-05,3.999999975690116e-08;0.0;0.0;0.0;3.999999975690116e-08;0.0;0.0;0.0;3.999999975690116e-08
9,980000000,9.98,imu_link,0.003676866893494669,-0.007040912816884125,-0.008796255347953483,-0.0006011163904634268,4.6392773189395056e-05,9.800047194491315,-4.61557079602113e-10,5.330484785033336e-08,-4.98910555901834e-08,0.9999999999999973,0.0;0.0;0.0;0.0;0.0;0.0;0.0;0.0;0.0,7.621289842063561e-05;0.0;0.0;0.0;7.621289842063561e-05;0.0;0.0;0.0;7.621289842063561e-05,3.999999975690116e-08;0.0;0.0;0.0;3.999999975690116e-08;0.0;0.0;0.0;3.999999975690116e-08
10,0,10.0,imu_link,-0.0004989083443496457,0.0017438977342585265,0.006428594657906015,-0.000370687135487639,-0.00012927010642786632,9.799909092081021,-4.6155707963322515e-10,5.330484785049449e-08,-4.9891055590196696e-08,0.9999999999999973,0.0;0.0;0.0;0.0;0.0;0.0;0.0;0.0;0.0,7.621289842063561e-05;0.0;0.0;0.0;7.621289842063561e-05;0.0;0.0;0.0;7.621289842063561e-05,3.999999975690116e-08;0.0;0.0;0.0;3.999999975690116e-08;0.0;0.0;0.0;3.999999975690116e-08
10,20000000,10.02,imu_link,-0.0007293540098877499,0.0024401361421834402,-0.005221834870563757,-0.00012922200250873247,0.00034141227674812233,9.79961583883194,-4.6155707968563143e-10,5.330484785077669e-08,-4.9891055590208515e-08,0.9999999999999973,0.0;0.0;0.0;0.0;0.0;0.0;0.0;0.0;0.0,7.621289842063561e-05;0.0;0.0;0.0;7.621289842063561e-05;0.0;0.0;0.0;7.621289842063561e-05,3.999999975690116e-08;0.0;0.0;0.0;3.999999975690116e-08;0.0;0.0;0.0;3.999999975690116e-08
10,40000000,10.04,imu_link,0.0003965072768505175,-0.00823721128444041,0.0034370715198665355,-0.00023737729863991893,-0.00013778142098794233,9.800288038658975,-4.6155707949687714e-10,5.330484785088051e-08,-4.9891055590221836e-08,0.9999999999999973,0.0;0.0;0.0;0.0;0.0;0.0;0.0;0.0;0.0,7.621289842063561e-05;0.0;0.0;0.0;7.621289842063561e-05;0.0;0.0;0.0;7.621289842063561e-05,3.999999975690116e-08;0.0;0.0;0.0;3.999999975690116e-08;0.0;0.0;0.0;3.999999975690116e-08
10,60000000,10.06,imu_link,-0.021195430554089966,0.014878292329784739,-0.004238571914148904,1.863188548400428e-05,0.00012148218445382979,9.800115823780512,-4.6155707944481393e-10,5.3304847850513466e-08,-4.989105559023517e-08,0.9999999999999973,0.0;0.0;0.0;0.0;0.0;0.0;0.0;0.0;0.0,7.621289842063561e-05;0.0;0.0;0.0;7.621289842063561e-05;0.0;0.0;0.0;7.621289842063561e-05,3.999999975690116e-08;0.0;0.0;0.0;3.999999975690116e-08;0.0;0.0;0.0;3.999999975690116e-08
10,80000000,10.08,imu_link,-0.006355939408654511,0.0021223541857438412,-0.0013153593117781347,-0.0001576496386561096,8.530445693687063e-05,9.799918142906089,-4.615570795897511e-10,5.3304847850726965e-08,-4.989105559024804e-08,0.9999999999999973,0.0;0.0;0.0;0.0;0.0;0.0;0.0;0.0;0.0,7.621289842063561e-05;0.0;0.0;0.0;7.621289842063561e-05;0.0;0.0;0.0;7.621289842063561e-05,3.999999975690116e-08;0.0;0.0;0.0;3.999999975690116e-08;0.0;0.0;0.0;3.999999975690116e-08
10,100000000,10.1,imu_link,-0.006844670212386624,-0.0036945910552499983,-0.012251838252107423,-4.0800193684244765e-05,0.00028864079739582987,9.799850702077078,-4.61557079542719e-10,5.3304847850703976e-08,-4.989105559026086e-08,0.9999999999999973,0.0;0.0;0.0;0.0;0.0;0.0;0.0;0.0;0.0,7.621289842063561e-05;0.0;0.0;0.0;7.621289842063561e-05;0.0;0.0;0.0;7.621289842063561e-05,3.999999975690116e-08;0.0;0.0;0.0;3.999999975690116e-08;0.0;0.0;0.0;3.999999975690116e-08
10,120000000,10.12,imu_link,0.0031609264572081634,0.022445663340592902,-0.0019602025680367954,-0.00012815430676832063,0.00010681754372797763,9.800069871153694,-4.615570795077459e-10,5.3304847850340407e-08,-4.989105559027282e-08,0.9999999999999973,0.0;0.0;0.0;0.0;0.0;0.0;0.0;0.0;0.0,7.621289842063561e-05;0.0;0.0;0.0;7.621289842063561e-05;0.0;0.0;0.0;7.621289842063561e-05,3.999999975690116e-08;0.0;0.0;0.0;3.999999975690116e-08;0.0;0.0;0.0;3.999999975690116e-08
10,140000000,10.14,imu_link,0.009108982484994147,-0.011267761782331841,-0.011962071239905867,-0.00024056422721943378,0.00019919880305098691,9.79970520894058,-4.6155707941917913e-10,5.3304847850624414e-08,-4.989105559028602e-08,0.9999999999999973,0.0;0.0;0.0;0.0;0.0;0.0;0.0;0.0;0.0,7.621289842063561e-05;0.0;0.0;0.0;7.621289842063561e-05;0.0;0.0;0.0;7.621289842063561e-05,3.999999975690116e-08;0.0;0.0;0.0;3.999999975690116e-08;0.0;0.0;0.0;3.999999975690116e-08
10,160000000,10.16,imu_link,0.00280780090558843,0.001300718901711449,0.011380363993349178,-0.00011631568689611205,0.00039046083765621053,9.799957603579935,-4.615570793809484e-10,5.330484785072424e-08,-4.989105559030018e-08,0.9999999999999973,0.0;0.0;0.0;0.0;0.0;0.0;0.0;0.0;0.0,7.621289842063561e-05;0.0;0.0;0.0;7.621289842063561e-05;0.0;0.0;0.0;7.621289842063561e-05,3.999999975690116e-08;0.0;0.0;0.0;3.999999975690116e-08;0.0;0.0;0.0;3.999999975690116e-08
10,180000000,10.18,imu_link,0.0025243151517350786,0.0038247560790414135,-0.007180736138715765,-0.00032260725882275466,8.431922612848533e-05,9.800093927562994,-4.6155707944323034e-10,5.330484785041906e-08,-4.9891055590311754e-08,0.9999999999999973,0.0;0.0;0.0;0.0;0.0;0.0;0.0;0.0;0.0,7.621289842063561e-05;0.0;0.0;0.0;7.621289842063561e-05;0.0;0.0;0.0;7.621289842063561e-05,3.999999975690116e-08;0.0;0.0;0.0;3.999999975690116e-08;0.0;0.0;0.0;3.999999975690116e-08
10,200000000,10.2,imu_link,0.0043183964095548635,-0.001047127258268224,-0.0025443709041807283,-0.00018852974317979098,0.0003198304619382758,9.799885889970584,-4.6155707940787406e-10,5.3304847850519025e-08,-4.989105559032446e-08,0.9999999999999973,0.0;0.0;0.0;0.0;0.0;0.0;0.0;0.0;0.0,7.621289842063561e-05;0.0;0.0;0.0;7.621289842063561e-05;0.0;0.0;0.0;7.621289842063561e-05,3.999999975690116e-08;0.0;0.0;0.0;3.999999975690116e-08;0.0;0.0;0.0;3.999999975690116e-08
10,220000000,10.22,imu_link,-0.027645904055665558,0.006561831047229141,0.004468086939358161,-7.39401592703945e-05,6.85181951667931e-05,9.799621690210726,-4.615570793339145e-10,5.3304847850799306e-08,-4.989105559033869e-08,0.9999999999999973,0.0;0.0;0.0;0.0;0.0;0.0;0.0;0.0;0.0,7.621289842063561e-05;0.0;0.0;0.0;7.621289842063561e-05;0.0;0.0;0.0;7.621289842063561e-05,3.999999975690116e-08;0.0;0.0;0.0;3.999999975690116e-08;0.0;0.0;0.0;3.999999975690116e-08
10,240000000,10.24,imu_link,-0.012593304151038284,0.017021279988652358,0.004465475080427391,-0.00030277479673845886,0.0002676087250854983,9.79992870189885,-4.6155707944747574e-10,5.330484785088665e-08,-4.9891055590353656e-08,0.9999999999999973,0.0;0.0;0.0;0.0;0.0;0.0;0.0;0.0;0.0,7.621289842063561e-05;0.0;0.0;0.0;7.621289842063561e-05;0.0;0.0;0.0;7.621289842063561e-05,3.999999975690116e-08;0.0;0.0;0.0;3.999999975690116e-08;0.0;0.0;0.0;3.999999975690116e-08
10,260000000,10.26,imu_link,-0.005167604899108654,-0.009575104072318836,-0.004238132190000377,0.00015019495647566585,0.0002147072518197426,9.799864868528152,-4.6155707940370915e-10,5.330484785052088e-08,-4.9891055590368e-08,0.9999999999999973,0.0;0.0;0.0;0.0;0.0;0.0;0.0;0.0;0.0,7.621289842063561e-05;0.0;0.0;0.0;7.621289842063561e-05;0.0;0.0;0.0;7.621289842063561e-05,3.999999975690116e-08;0.0;0.0;0.0;3.999999975690116e-08;0.0;0.0;0.0;3.999999975690116e-08
10,280000000,10.28,imu_link,-0.0016745582581479343,0.003903977046996193,0.008668045736087046,-5.802173036928332e-05,3.669734557381367e-05,9.799728049628639,-4.6155707937136706e-10,5.3304847850618386e-08,-4.9891055590382706e-08,0.9999999999999973,0.0;0.0;0.0;0.0;0.0;0.0;0.0;0.0;0.0,7.621289842063561e-05;0.0;0.0;0.0;7.621289842063561e-05;0.0;0.0;0.0;7.621289842063561e-05,3.999999975690116e-08;0.0;0.0;0.0;3.999999975690116e-08;0.0;0.0;0.0;3.999999975690116e-08
10,300000000,10.3,imu_link,0.007328779374226396,-0.0018218158485901208,0.0003071562123058632,-0.0007121512764794342,0.00024179504618430331,9.800167252077332,-4.615570795718642e-10,5.330484785029184e-08,-4.989105559039615e-08,0.9999999999999973,0.0;0.0;0.0;0.0;0.0;0.0;0.0;0.0;0.0,7.621289842063561e-05;0.0;0.0;0.0;7.621289842063561e-05;0.0;0.0;0.0;7.621289842063561e-05,3.999999975690116e-08;0.0;0.0;0.0;3.999999975690116e-08;0.0;0.0;0.0;3.999999975690116e-08
10,320000000,10.32,imu_link,0.004246981588016259,-0.013075617430340606,0.006041060329753133,-0.00026271687168988366,0.00010757355619294171,9.799640587206088,-4.615570794239121e-10,5.33048478503921e-08,-4.9891055590409904e-08,0.9999999999999973,0.0;0.0;0.0;0.0;0.0;0.0;0.0;0.0;0.0,7.621289842063561e-05;0.0;0.0;0.0;7.621289842063561e-05;0.0;0.0;0.0;7.621289842063561e-05,3.999999975690116e-08;0.0;0.0;0.0;3.999999975690116e-08;0.0;0.0;0.0;3.999999975690116e-08
10,340000000,10.34,imu_link,-0.007329408354302947,0.0058271313838510405,0.00823242334881768,-0.000410821728531496,0.0001482972907815483,9.79999068915996,-4.6155707950659734e-10,5.330484785053971e-08,-4.9891055590421266e-08,0.9999999999999973,0.0;0.0;0.0;0.0;0.0;0.0;0.0;0.0;0.0,7.621289842063561e-05;0.0;0.0;0.0;7.621289842063561e-05;0.0;0.0;0.0;7.621289842063561e-05,3.999999975690116e-08;0.0;0.0;0.0;3.999999975690116e-08;0.0;0.0;0.0;3.999999975690116e-08
10,360000000,10.36,imu_link,0.019670021613706953,-0.005137694782690333,0.010105697610906563,-0.00014982866675577713,0.0003654419697632196,9.799718163315198,-4.615570795357342e-10,5.3304847850875864e-08,-4.989105559043532e-08,0.9999999999999973,0.0;0.0;0.0;0.0;0.0;0.0;0.0;0.0;0.0,7.621289842063561e-05;0.0;0.0;0.0;7.621289842063561e-05;0.0;0.0;0.0;7.621289842063561e-05,3.999999975690116e-08;0.0;0.0;0.0;3.999999975690116e-08;0.0;0.0;0.0;3.999999975690116e-08
10,380000000,10.38,imu_link,-0.004223249181944304,-0.002473674254448658,-0.008043702967968304,1.3643020977976495e-05,1.9570725690980158e-05,9.799874374789251,-4.615570794975392e-10,5.3304847850391824e-08,-4.989105559044924e-08,0.9999999999999973,0.0;0.0;0.0;0.0;0.0;0.0;0.0;0.0;0.0,7.621289842063561e-05;0.0;0.0;0.0;7.621289842063561e-05;0.0;0.0;0.0;7.621289842063561e-05,3.999999975690116e-08;0.0;0.0;0.0;3.999999975690116e-08;0.0;0.0;0.0;3.999999975690116e-08
10,400000000,10.4,imu_link,-0.009071567147816902,-0.007196012166127923,-0.0016878450970895895,-0.00015848807032623372,2.7366590404483788e-05,9.800056962634905,-4.615570795723852e-10,5.330484785054816e-08,-4.989105559046208e-08,0.9999999999999973,0.0;0.0;0.0;0.0;0.0;0.0;0.0;0.0;0.0,7.621289842063561e-05;0.0;0.0;0.0;7.621289842063561e-05;0.0;0.0;0.0;7.621289842063561e-05,3.999999975690116e-08;0.0;0.0;0.0;3.999999975690116e-08;0.0;0.0;0.0;3.999999975690116e-08
10,420000000,10.42,imu_link,0.012121151922804085,0.008306659777705495,0.0020854586759500486,8.343204783214974e-06,-0.0001053868749344814,9.800112991771876,-4.615570794893857e-10,5.330484785082971e-08,-4.989105559047737e-08,0.9999999999999973,0.0;0.0;0.0;0.0;0.0;0.0;0.0;0.0;0.0,7.621289842063561e-05;0.0;0.0;0.0;7.621289842063561e-05;0.0;0.0;0.0;7.621289842063561e-05,3.999999975690116e-08;0.0;0.0;0.0;3.999999975690116e-08;0.0;0.0;0.0;3.999999975690116e-08
10,440000000,10.44,imu_link,0.0016710943960288709,0.012642230261250309,-0.003841026196386424,0.0004458227206251241,0.00015296232005992087,9.799384478740759,-4.6155707948406944e-10,5.330484785028369e-08,-4.9891055590491206e-08,0.9999999999999973,0.0;0.0;0.0;0.0;0.0;0.0;0.0;0.0;0.0,7.621289842063561e-05;0.0;0.0;0.0;7.621289842063561e-05;0.0;0.0;0.0;7.621289842063561e-05,3.999999975690116e-08;0.0;0.0;0.0;3.999999975690116e-08;0.0;0.0;0.0;3.999999975690116e-08
10,460000000,10.46,imu_link,0.002510373035687317,0.015524303311361532,0.003003996695013751,-0.0003419770528478058,-7.101252873651745e-05,9.799923015365234,-4.615570794099682e-10,5.3304847850569536e-08,-4.989105559050418e-08,0.9999999999999973,0.0;0.0;0.0;0.0;0.0;0.0;0.0;0.0;0.0,7.621289842063561e-05;0.0;0.0;0.0;7.621289842063561e-05;0.0;0.0;0.0;7.621289842063561e-05,3.999999975690116e-08;0.0;0.0;0.0;3.999999975690116e-08;0.0;0.0;0.0;3.999999975690116e-08
10,480000000,10.48,imu_link,0.008588615677806487,-0.009203308665815833,0.005428878602895779,0.00017936708173326978,-0.0001887211600524145,9.79972409957766,-4.6155707938294723e-10,5.330484785055644e-08,-4.989105559051767e-08,0.9999999999999973,0.0;0.0;0.0;0.0;0.0;0.0;0.0;0.0;0.0,7.621289842063561e-05;0.0;0.0;0.0;7.621289842063561e-05;0.0;0.0;0.0;7.621289842063561e-05,3.999999975690116e-08;0.0;0.0;0.0;3.999999975690116e-08;0.0;0.0;0.0;3.999999975690116e-08
10,500000000,10.5,imu_link,0.00894018642048797,-0.0019540256615382364,-0.00483881957611869,-0.0004145091043915933,4.836005376878047e-05,9.799889145495179,-4.615570794325769e-10,5.330484785082686e-08,-4.989105559053255e-08,0.9999999999999973,0.0;0.0;0.0;0.0;0.0;0.0;0.0;0.0;0.0,7.621289842063561e-05;0.0;0.0;0.0;7.621289842063561e-05;0.0;0.0;0.0;7.621289842063561e-05,3.999999975690116e-08;0.0;0.0;0.0;3.999999975690116e-08;0.0;0.0;0.0;3.999999975690116e-08
10,520000000,10.52,imu_link,0.006145811167170381,-0.0016649176365938789,-0.0019439785092154884,0.0004124167100328063,-0.00015784961585793263,9.79970938383243,-4.6155707962483753e-10,5.3304847850512116e-08,-4.989105559054589e-08,0.9999999999999973,0.0;0.0;0.0;0.0;0.0;0.0;0.0;0.0;0.0,7.621289842063561e-05;0.0;0.0;0.0;7.621289842063561e-05;0.0;0.0;0.0;7.621289842063561e-05,3.999999975690116e-08;0.0;0.0;0.0;3.999999975690116e-08;0.0;0.0;0.0;3.999999975690116e-08
10,540000000,10.54,imu_link,0.007562433367814338,-0.005233083318628146,-0.013049910865287956,-0.00011781759847494073,0.00014334951425249717,9.800088282325866,-4.615570795827322e-10,5.3304847850600525e-08,-4.9891055590560074e-08,0.9999999999999973,0.0;0.0;0.0;0.0;0.0;0.0;0.0;0.0;0.0,7.621289842063561e-05;0.0;0.0;0.0;7.621289842063561e-05;0.0;0.0;0.0;7.621289842063561e-05,3.999999975690116e-08;0.0;0.0;0.0;3.999999975690116e-08;0.0;0.0;0.0;3.999999975690116e-08
10,560000000,10.56,imu_link,-0.002147749728332959,0.00023969676067711016,-0.025359864744058165,-0.00018238863991002115,8.294555810057822e-05,9.799947357283129,-4.6155707967021646e-10,5.3304847850684904e-08,-4.989105559057354e-08,0.9999999999999973,0.0;0.0;0.0;0.0;0.0;0.0;0.0;0.0;0.0,7.621289842063561e-05;0.0;0.0;0.0;7.621289842063561e-05;0.0;0.0;0.0;7.621289842063561e-05,3.999999975690116e-08;0.0;0.0;0.0;3.999999975690116e-08;0.0;0.0;0.0;3.999999975690116e-08
10,580000000,10.58,imu_link,-0.00551740235243402,-0.013330444350613372,-0.012366777344001812,-0.00022675207454627197,-0.00011354693963507237,9.79985214667881,-4.6155707957792026e-10,5.330484785051394e-08,-4.989105559058569e-08,0.9999999999999973,0.0;0.0;0.0;0.0;0.0;0.0;0.0;0.0;0.0,7.621289842063561e-05;0.0;0.0;0.0;7.621289842063561e-05;0.0;0.0;0.0;7.621289842063561e-05,3.999999975690116e-08;0.0;0.0;0.0;3.999999975690116e-08;0.0;0.0;0.0;3.999999975690116e-08
10,600000000,10.6,imu_link,0.006100554550991587,-0.002362613285600849,-0.005762502402680088,0.00011371287114059184,0.00034821335385277824,9.800150011101042,-4.615570793927049e-10,5.330484785062692e-08,-4.989105559060006e-08,0.9999999999999973,0.0;0.0;0.0;0.0;0.0;0.0;0.0;0.0;0.0,7.621289842063561e-05;0.0;0.0;0.0;7.621289842063561e-05;0.0;0.0;0.0;7.621289842063561e-05,3.999999975690116e-08;0.0;0.0;0.0;3.999999975690116e-08;0.0;0.0;0.0;3.999999975690116e-08
10,620000000,10.62,imu_link,0.002147411197085146,-0.007623099924594096,0.01157601505598228,-0.00025799838845773235,3.5904788999014195e-05,9.800013830435105,-4.6155707947097584e-10,5.3304847850765564e-08,-4.9891055590613834e-08,0.9999999999999973,0.0;0.0;0.0;0.0;0.0;0.0;0.0;0.0;0.0,7.621289842063561e-05;0.0;0.0;0.0;7.621289842063561e-05;0.0;0.0;0.0;7.621289842063561e-05,3.999999975690116e-08;0.0;0.0;0.0;3.999999975690116e-08;0.0;0.0;0.0;3.999999975690116e-08
10,640000000,10.64,imu_link,-0.014885527724646904,0.012081925535709763,-0.007756284020239182,-5.127095264169403e-06,0.00031632908835303,9.799934716799694,-4.6155707956846057e-10,5.330484785038821e-08,-4.9891055590627347e-08,0.9999999999999973,0.0;0.0;0.0;0.0;0.0;0.0;0.0;0.0;0.0,7.621289842063561e-05;0.0;0.0;0.0;7.621289842063561e-05;0.0;0.0;0.0;7.621289842063561e-05,3.999999975690116e-08;0.0;0.0;0.0;3.999999975690116e-08;0.0;0.0;0.0;3.999999975690116e-08
10,660000000,10.66,imu_link,0.00750914517416865,-0.007407662827572175,-0.014410371098039864,-0.00022646234954879911,-0.0001352755432971129,9.799516016586931,-4.6155707940182545e-10,5.330484785049558e-08,-4.9891055590639655e-08,0.9999999999999973,0.0;0.0;0.0;0.0;0.0;0.0;0.0;0.0;0.0,7.621289842063561e-05;0.0;0.0;0.0;7.621289842063561e-05;0.0;0.0;0.0;7.621289842063561e-05,3.999999975690116e-08;0.0;0.0;0.0;3.999999975690116e-08;0.0;0.0;0.0;3.999999975690116e-08
10,680000000,10.68,imu_link,0.002984764445025552,0.002042105200703639,-0.0043743494141798775,-0.0001733974444864306,0.0002342529972798363,9.799616957288746,-4.6155707971271203e-10,5.330484785082203e-08,-4.989105559065334e-08,0.9999999999999973,0.0;0.0;0.0;0.0;0.0;0.0;0.0;0.0;0.0,7.621289842063561e-05;0.0;0.0;0.0;7.621289842063561e-05;0.0;0.0;0.0;7.621289842063561e-05,3.999999975690116e-08;0.0;0.0;0.0;3.999999975690116e-08;0.0;0.0;0.0;3.999999975690116e-08
10,700000000,10.7,imu_link,-0.0013724276981370155,-0.011684562497325638,0.018331791771630784,2.1449398992259795e-07,-0.00012098293333008396,9.799996235995854,-4.6155707942666977e-10,5.3304847850868015e-08,-4.989105559066536e-08,0.9999999999999973,0.0;0.0;0.0;0.0;0.0;0.0;0.0;0.0;0.0,7.621289842063561e-05;0.0;0.0;0.0;7.621289842063561e-05;0.0;0.0;0.0;7.621289842063561e-05,3.999999975690116e-08;0.0;0.0;0.0;3.999999975690116e-08;0.0;0.0;0.0;3.999999975690116e-08
10,720000000,10.72,imu_link,0.00032447431271396133,0.0158602841867221,0.00040032532737419615,-0.00014567636692039453,-3.936911247647889e-05,9.79977063663959,-4.6155707961553615e-10,5.330484785054176e-08,-4.9891055590676554e-08,0.9999999999999973,0.0;0.0;0.0;0.0;0.0;0.0;0.0;0.0;0.0,7.621289842063561e-05;0.0;0.0;0.0;7.621289842063561e-05;0.0;0.0;0.0;7.621289842063561e-05,3.999999975690116e-08;0.0;0.0;0.0;3.999999975690116e-08;0.0;0.0;0.0;3.999999975690116e-08
10,740000000,10.74,imu_link,-0.002215764674740379,-0.021552021077142724,-0.00712538034680118,-0.000474041602134347,-0.00027112405019559657,9.799915247673304,-4.6155707942881615e-10,5.330484785063823e-08,-4.9891055590689895e-08,0.9999999999999973,0.0;0.0;0.0;0.0;0.0;0.0;0.0;0.0;0.0,7.621289842063561e-05;0.0;0.0;0.0;7.621289842063561e-05;0.0;0.0;0.0;7.621289842063561e-05,3.999999975690116e-08;0.0;0.0;0.0;3.999999975690116e-08;0.0;0.0;0.0;3.999999975690116e-08
10,760000000,10.76,imu_link,-0.011188366037343108,1.7340547935504745e-05,0.011692800310932136,-0.00011439014195177104,1.6568777904203653e-05,9.800175107817301,-4.615570793779174e-10,5.330484785026943e-08,-4.989105559070229e-08,0.9999999999999973,0.0;0.0;0.0;0.0;0.0;0.0;0.0;0.0;0.0,7.621289842063561e-05;0.0;0.0;0.0;7.621289842063561e-05;0.0;0.0;0.0;7.621289842063561e-05,3.999999975690116e-08;0.0;0.0;0.0;3.999999975690116e-08;0.0;0.0;0.0;3.999999975690116e-08
10,780000000,10.78,imu_link,-0.008396486068982979,0.008934798706545817,-0.016055293512855805,-3.6096059958199526e-05,0.00043279132824663595,9.800065440696889,-4.6155707943815155e-10,5.33048478504376e-08,-4.989105559071588e-08,0.9999999999999973,0.0;0.0;0.0;0.0;0.0;0.0;0.0;0.0;0.0,7.621289842063561e-05;0.0;0.0;0.0;7.621289842063561e-05;0.0;0.0;0.0;7.621289842063561e-05,3.999999975690116e-08;0.0;0.0;0.0;3.999999975690116e-08;0.0;0.0;0.0;3.999999975690116e-08
10,800000000,10.8,imu_link,-0.0010894488724513874,0.004542955477421585,-0.011999881592772835,-9.888097138292702e-05,0.0003214265868838316,9.799567573183857,-4.6155707952706437e-10,5.3304847850531035e-08,-4.989105559072917e-08,0.9999999999999973,0.0;0.0;0.0;0.0;0.0;0.0;0.0;0.0;0.0,7.621289842063561e-05;0.0;0.0;0.0;7.621289842063561e-05;0.0;0.0;0.0;7.621289842063561e-05,3.999999975690116e-08;0.0;0.0;0.0;3.999999975690116e-08;0.0;0.0;0.0;3.999999975690116e-08
10,820000000,10.82,imu_link,-0.00048362797728634846,-0.006327274468668045,0.019141435476397402,-0.000258830584560648,0.0002975825778769508,9.799853510456488,-4.615570796928451e-10,5.330484785086507e-08,-4.989105559074175e-08,0.9999999999999973,0.0;0.0;0.0;0.0;0.0;0.0;0.0;0.0;0.0,7.621289842063561e-05;0.0;0.0;0.0;7.621289842063561e-05;0.0;0.0;0.0;7.621289842063561e-05,3.999999975690116e-08;0.0;0.0;0.0;3.999999975690116e-08;0.0;0.0;0.0;3.999999975690116e-08
10,840000000,10.84,imu_link,0.007096376625417894,-0.0007978935270833705,0.007324967914165835,7.254107731625397e-05,0.0003579182526553548,9.799755826480073,-4.615570794497405e-10,5.330484785027045e-08,-4.98910555907541e-08,0.9999999999999973,0.0;0.0;0.0;0.0;0.0;0.0;0.0;0.0;0.0,7.621289842063561e-05;0.0;0.0;0.0;7.621289842063561e-05;0.0;0.0;0.0;7.621289842063561e-05,3.999999975690116e-08;0.0;0.0;0.0;3.999999975690116e-08;0.0;0.0;0.0;3.999999975690116e-08
10,860000000,10.86,imu_link,0.0007602998580719443,0.006609519938237149,0.009979269398479455,-0.0003317629151770321,0.00038187018782949694,9.799986021516265,-4.615570794860605e-10,5.330484785061135e-08,-4.989105559076658e-08,0.9999999999999973,0.0;0.0;0.0;0.0;0.0;0.0;0.0;0.0;0.0,7.621289842063561e-05;0.0;0.0;0.0;7.621289842063561e-05;0.0;0.0;0.0;7.621289842063561e-05,3.999999975690116e-08;0.0;0.0;0.0;3.999999975690116e-08;0.0;0.0;0.0;3.999999975690116e-08
10,880000000,10.88,imu_link,-0.017928815882877792,0.01763229574082885,-0.004591563442421082,-0.00038332563040591406,0.0003690459940729395,9.799687781199298,-4.615570794589503e-10,5.330484785071579e-08,-4.989105559077904e-08,0.9999999999999973,0.0;0.0;0.0;0.0;0.0;0.0;0.0;0.0;0.0,7.621289842063561e-05;0.0;0.0;0.0;7.621289842063561e-05;0.0;0.0;0.0;7.621289842063561e-05,3.999999975690116e-08;0.0;0.0;0.0;3.999999975690116e-08;0.0;0.0;0.0;3.999999975690116e-08
10,900000000,10.9,imu_link,-0.0014558483861329661,-0.0033413978448408473,-0.01467292839243261,-0.00032191723007938807,0.0002853848162577764,9.800094199407717,-4.6155707939356295e-10,5.330484785035713e-08,-4.9891055590791333e-08,0.9999999999999973,0.0;0.0;0.0;0.0;0.0;0.0;0.0;0.0;0.0,7.621289842063561e-05;0.0;0.0;0.0;7.621289842063561e-05;0.0;0.0;0.0;7.621289842063561e-05,3.999999975690116e-08;0.0;0.0;0.0;3.999999975690116e-08;0.0;0.0;0.0;3.999999975690116e-08
10,920000000,10.92,imu_link,0.0016982238657255024,0.007684019792492373,0.006968280346260581,-3.2416922087538956e-05,0.00029356624948294845,9.79993356621341,-4.6155707950150294e-10,5.3304847850444353e-08,-4.9891055590804635e-08,0.9999999999999973,0.0;0.0;0.0;0.0;0.0;0.0;0.0;0.0;0.0,7.621289842063561e-05;0.0;0.0;0.0;7.621289842063561e-05;0.0;0.0;0.0;7.621289842063561e-05,3.999999975690116e-08;0.0;0.0;0.0;3.999999975690116e-08;0.0;0.0;0.0;3.999999975690116e-08
10,940000000,10.94,imu_link,-0.0011188609929922424,-0.005765969812267934,0.011016686779237181,7.594464699163124e-05,3.585328729333212e-05,9.800138913430645,-4.615570794309022e-10,5.330484785072772e-08,-4.989105559081573e-08,0.9999999999999973,0.0;0.0;0.0;0.0;0.0;0.0;0.0;0.0;0.0,7.621289842063561e-05;0.0;0.0;0.0;7.621289842063561e-05;0.0;0.0;0.0;7.621289842063561e-05,3.999999975690116e-08;0.0;0.0;0.0;3.999999975690116e-08;0.0;0.0;0.0;3.999999975690116e-08
10,960000000,10.96,imu_link,-0.0020337103330122677,0.0024942272814081007,-0.003957323882753103,-0.00017788377036090462,7.334457181391532e-05,9.799917284974592,-4.615570795203761e-10,5.330484785088999e-08,-4.989105559082839e-08,0.9999999999999973,0.0;0.0;0.0;0.0;0.0;0.0;0.0;0.0;0.0,7.621289842063561e-05;0.0;0.0;0.0;7.621289842063561e-05;0.0;0.0;0.0;7.621289842063561e-05,3.999999975690116e-08;0.0;0.0;0.0;3.999999975690116e-08;0.0;0.0;0.0;3.999999975690116e-08
10,980000000,10.98,imu_link,0.004208790504457087,-0.005997225723703787,-0.009313565385681814,-0.00024134927951898285,-2.679607232792576e-05,9.79986057596714,-4.6155707960914e-10,5.330484785052064e-08,-4.989105559084096e-08,0.9999999999999973,0.0;0.0;0.0;0.0;0.0;0.0;0.0;0.0;0.0,7.621289842063561e-05;0.0;0.0;0.0;7.621289842063561e-05;0.0;0.0;0.0;7.621289842063561e-05,3.999999975690116e-08;0.0;0.0;0.0;3.999999975690116e-08;0.0;0.0;0.0;3.999999975690116e-08
11,0,11.0,imu_link,0.011185534541322293,0.011352330373303786,-0.005652411472869871,0.000285440029428948,0.0002916912718720031,9.799977021653797,-4.6155707956139237e-10,5.3304847850512606e-08,-4.989105559085245e-08,0.9999999999999973,0.0;0.0;0.0;0.0;0.0;0.0;0.0;0.0;0.0,7.621289842063561e-05;0.0;0.0;0.0;7.621289842063561e-05;0.0;0.0;0.0;7.621289842063561e-05,3.999999975690116e-08;0.0;0.0;0.0;3.999999975690116e-08;0.0;0.0;0.0;3.999999975690116e-08
11,20000000,11.02,imu_link,0.00449889592641721,-0.011029552223210929,-0.015296334473427571,-0.00028280027278979915,7.503094300997148e-05,9.800127488933049,-4.615570794729696e-10,5.330484785033206e-08,-4.9891055590863874e-08,0.9999999999999973,0.0;0.0;0.0;0.0;0.0;0.0;0.0;0.0;0.0,7.621289842063561e-05;0.0;0.0;0.0;7.621289842063561e-05;0.0;0.0;0.0;7.621289842063561e-05,3.999999975690116e-08;0.0;0.0;0.0;3.999999975690116e-08;0.0;0.0;0.0;3.999999975690116e-08
11,40000000,11.04,imu_link,0.012187043073110186,0.008413973633389304,-0.007507447321008362,-6.381940631199377e-05,-0.0001256845728894621,9.79951076600677,-4.6155707953772477e-10,5.330484785036476e-08,-4.989105559087568e-08,0.9999999999999973,0.0;0.0;0.0;0.0;0.0;0.0;0.0;0.0;0.0,7.621289842063561e-05;0.0;0.0;0.0;7.621289842063561e-05;0.0;0.0;0.0;7.621289842063561e-05,3.999999975690116e-08;0.0;0.0;0.0;3.999999975690116e-08;0.0;0.0;0.0;3.999999975690116e-08
11,60000000,11.06,imu_link,0.004968224657105388,-0.002729600347762492,-0.00647454514673989,0.00034918907169365955,0.00032247570056667457,9.799549066499674,-4.615570794482231e-10,5.330484785053522e-08,-4.989105559088799e-08,0.9999999999999973,0.0;0.0;0.0;0.0;0.0;0.0;0.0;0.0;0.0,7.621289842063561e-05;0.0;0.0;0.0;7.621289842063561e-05;0.0;0.0;0.0;7.621289842063561e-05,3.999999975690116e-08;0.0;0.0;0.0;3.999999975690116e-08;0.0;0.0;0.0;3.999999975690116e-08
11,80000000,11.08,imu_link,0.0031600826257217078,-0.0008695395697387972,-0.017151498478806832,-0.0003990189113989073,0.00013051003213672101,9.79988810263945,-4.615570794806978e-10,5.330484785087775e-08,-4.989105559090154e-08,0.9999999999999973,0.0;0.0;0.0;0.0;0.0;0.0;0.0;0.0;0.0,7.621289842063561e-05;0.0;0.0;0.0;7.621289842063561e-05;0.0;0.0;0.0;7.621289842063561e-05,3.999999975690116e-08;0.0;0.0;0.0;3.999999975690116e-08;0.0;0.0;0.0;3.999999975690116e-08
11,100000000,11.1,imu_link,0.012491072553931146,-0.005008224097596251,0.010172647775152787,1.9068318722715268e-05,7.31276257493575e-05,9.799500826315004,-4.6155707958406554e-10,5.330484785038728e-08,-4.989105559091312e-08,0.9999999999999973,0.0;0.0;0.0;0.0;0.0;0.0;0.0;0.0;0.0,7.621289842063561e-05;0.0;0.0;0.0;7.621289842063561e-05;0.0;0.0;0.0;7.621289842063561e-05,3.999999975690116e-08;0.0;0.0;0.0;3.999999975690116e-08;0.0;0.0;0.0;3.999999975690116e-08
11,120000000,11.12,imu_link,-0.006436294532100316,-0.0010726786275078765,-0.0011251881094205955,0.00010284661775673843,0.00016190477677213358,9.799883003271812,-4.615570795070177e-10,5.330484785056107e-08,-4.9891055590924715e-08,0.9999999999999973,0.0;0.0;0.0;0.0;0.0;0.0;0.0;0.0;0.0,7.621289842063561e-05;0.0;0.0;0.0;7.621289842063561e-05;0.0;0.0;0.0;7.621289842063561e-05,3.999999975690116e-08;0.0;0.0;0.0;3.999999975690116e-08;0.0;0.0;0.0;3.999999975690116e-08
11,140000000,11.14,imu_link,-0.008161331083412764,-0.0020186078595157858,0.0150517410310038,-9.268264843017492e-05,-0.00032725291312820206,9.799938483164286,-4.6155707955840144e-10,5.330484785059009e-08,-4.9891055590936394e-08,0.9999999999999973,0.0;0.0;0.0;0.0;0.0;0.0;0.0;0.0;0.0,7.621289842063561e-05;0.0;0.0;0.0;7.621289842063561e-05;0.0;0.0;0.0;7.621289842063561e-05,3.999999975690116e-08;0.0;0.0;0.0;3.999999975690116e-08;0.0;0.0;0.0;3.999999975690116e-08
11,160000000,11.16,imu_link,-0.00036872971485818576,-0.014547146830735444,-0.008214308023265915,-0.00017360591801649996,-0.0001997316473830772,9.799945077901869,-4.615570796138324e-10,5.3304847850410796e-08,-4.989105559094885e-08,0.9999999999999973,0.0;0.0;0.0;0.0;0.0;0.0;0.0;0.0;0.0,7.621289842063561e-05;0.0;0.0;0.0;7.621289842063561e-05;0.0;0.0;0.0;7.621289842063561e-05,3.999999975690116e-08;0.0;0.0;0.0;3.999999975690116e-08;0.0;0.0;0.0;3.999999975690116e-08
11,180000000,11.18,imu_link,0.006181536639335608,-0.011552490752487071,0.005839075227360194,9.458349156924424e-05,0.0002052963226561275,9.799718068881031,-4.6155707943687573e-10,5.330484785053279e-08,-4.989105559096111e-08,0.9999999999999973,0.0;0.0;0.0;0.0;0.0;0.0;0.0;0.0;0.0,7.621289842063561e-05;0.0;0.0;0.0;7.621289842063561e-05;0.0;0.0;0.0;7.621289842063561e-05,3.999999975690116e-08;0.0;0.0;0.0;3.999999975690116e-08;0.0;0.0;0.0;3.999999975690116e-08
11,200000000,11.2,imu_link,-0.013574861043481996,-0.007393958947180383,0.00042192866534620843,-0.000253455997904813,-1.868100821215717e-05,9.799955484249592,-4.6155707950702085e-10,5.3304847850816446e-08,-4.9891055590972976e-08,0.9999999999999973,0.0;0.0;0.0;0.0;0.0;0.0;0.0;0.0;0.0,7.621289842063561e-05;0.0;0.0;0.0;7.621289842063561e-05;0.0;0.0;0.0;7.621289842063561e-05,3.999999975690116e-08;0.0;0.0;0.0;3.999999975690116e-08;0.0;0.0;0.0;3.999999975690116e-08
11,220000000,11.22,imu_link,-0.004691000188075015,-0.011300957205657264,-0.004566150941712146,-0.00010439259213262672,0.00012515728071957316,9.799766762000086,-4.615570793697565e-10,5.3304847850282014e-08,-4.98910555909854e-08,0.9999999999999973,0.0;0.0;0.0;0.0;0.0;0.0;0.0;0.0;0.0,7.621289842063561e-05;0.0;0.0;0.0;7.621289842063561e-05;0.0;0.0;0.0;7.621289842063561e-05,3.999999975690116e-08;0.0;0.0;0.0;3.999999975690116e-08;0.0;0.0;0.0;3.999999975690116e-08
11,240000000,11.24,imu_link,-0.010290463016968473,0.01002008078035277,-0.0020280709818626635,0.00025127006538993365,0.00010963319227237199,9.799809737499753,-4.615570794254423e-10,5.330484785044831e-08,-4.989105559099758e-08,0.9999999999999973,0.0;0.0;0.0;0.0;0.0;0.0;0.0;0.0;0.0,7.621289842063561e-05;0.0;0.0;0.0;7.621289842063561e-05;0.0;0.0;0.0;7.621289842063561e-05,3.999999975690116e-08;0.0;0.0;0.0;3.999999975690116e-08;0.0;0.0;0.0;3.999999975690116e-08
11,260000000,11.26,imu_link,0.0029303288631500044,-0.010348483062685158,-0.00460504953734354,0.00015975446781559357,0.0002025375252854803,9.799716114650137,-4.615570795036567e-10,5.3304847850730684e-08,-4.989105559101003e-08,0.9999999999999973,0.0;0.0;0.0;0.0;0.0;0.0;0.0;0.0;0.0,7.621289842063561e-05;0.0;0.0;0.0;7.621289842063561e-05;0.0;0.0;0.0;7.621289842063561e-05,3.999999975690116e-08;0.0;0.0;0.0;3.999999975690116e-08;0.0;0.0;0.0;3.999999975690116e-08
11,280000000,11.28,imu_link,0.0009357194681891438,-0.0008293335696425432,-0.0031523204343259035,-5.293723041217062e-05,0.00016967813980802327,9.80018413072356,-4.615570794640257e-10,5.3304847850365454e-08,-4.989105559102071e-08,0.9999999999999973,0.0;0.0;0.0;0.0;0.0;0.0;0.0;0.0;0.0,7.621289842063561e-05;0.0;0.0;0.0;7.621289842063561e-05;0.0;0.0;0.0;7.621289842063561e-05,3.999999975690116e-08;0.0;0.0;0.0;3.999999975690116e-08;0.0;0.0;0.0;3.999999975690116e-08
11,300000000,11.3,imu_link,0.00035271340079320537,-0.002820073976012553,0.004981330563982404,0.0002328803812763513,-9.179669404489164e-05,9.799931205552815,-4.6155707943152703e-10,5.330484785046368e-08,-4.9891055591032467e-08,0.9999999999999973,0.0;0.0;0.0;0.0;0.0;0.0;0.0;0.0;0.0,7.621289842063561e-05;0.0;0.0;0.0;7.621289842063561e-05;0.0;0.0;0.0;7.621289842063561e-05,3.999999975690116e-08;0.0;0.0;0.0;3.999999975690116e-08;0.0;0.0;0.0;3.999999975690116e-08
11,320000000,11.32,imu_link,-0.014065461665838943,0.003663979125579593,0.0056735725286375825,-3.30238360306422e-06,-0.00018689641812045084,9.7999731314041,-4.6155707937815335e-10,5.330484785056244e-08,-4.989105559104387e-08,0.9999999999999973,0.0;0.0;0.0;0.0;0.0;0.0;0.0;0.0;0.0,7.621289842063561e-05;0.0;0.0;0.0;7.621289842063561e-05;0.0;0.0;0.0;7.621289842063561e-05,3.999999975690116e-08;0.0;0.0;0.0;3.999999975690116e-08;0.0;0.0;0.0;3.999999975690116e-08
11,340000000,11.34,imu_link,-0.016193967416233288,0.0042422919022118465,0.007551398181767397,-3.665240860162583e-05,2.4698212582773514e-05,9.799958379350556,-4.6155707968239514e-10,5.330484785088852e-08,-4.9891055591055767e-08,0.9999999999999973,0.0;0.0;0.0;0.0;0.0;0.0;0.0;0.0;0.0,7.621289842063561e-05;0.0;0.0;0.0;7.621289842063561e-05;0.0;0.0;0.0;7.621289842063561e-05,3.999999975690116e-08;0.0;0.0;0.0;3.999999975690116e-08;0.0;0.0;0.0;3.999999975690116e-08
11,360000000,11.36,imu_link,-0.004050216775003542,0.008531666128666135,0.0070170923190786905,-3.927763808813146e-05,0.0004132674421524927,9.799744887888833,-4.6155707950852177e-10,5.330484785053535e-08,-4.989105559106492e-08,0.9999999999999973,0.0;0.0;0.0;0.0;0.0;0.0;0.0;0.0;0.0,7.621289842063561e-05;0.0;0.0;0.0;7.621289842063561e-05;0.0;0.0;0.0;7.621289842063561e-05,3.999999975690116e-08;0.0;0.0;0.0;3.999999975690116e-08;0.0;0.0;0.0;3.999999975690116e-08
11,380000000,11.38,imu_link,0.006420823321950934,0.011167554147354685,-0.004376749751297959,-0.00013963428702965205,0.00012014495230123916,9.799640269539543,-4.6155707960177367e-10,5.33048478505164e-08,-4.989105559107533e-08,0.9999999999999973,0.0;0.0;0.0;0.0;0.0;0.0;0.0;0.0;0.0,7.621289842063561e-05;0.0;0.0;0.0;7.621289842063561e-05;0.0;0.0;0.0;7.621289842063561e-05,3.999999975690116e-08;0.0;0.0;0.0;3.999999975690116e-08;0.0;0.0;0.0;3.999999975690116e-08
11,400000000,11.4,imu_link,-0.009270013991272828,-0.0027384438185265297,0.008256816200058928,-0.00013128768969353498,-8.248553269235523e-05,9.799546451921568,-4.61557079516923e-10,5.330484785080092e-08,-4.989105559108608e-08,0.9999999999999973,0.0;0.0;0.0;0.0;0.0;0.0;0.0;0.0;0.0,7.621289842063561e-05;0.0;0.0;0.0;7.621289842063561e-05;0.0;0.0;0.0;7.621289842063561e-05,3.999999975690116e-08;0.0;0.0;0.0;3.999999975690116e-08;0.0;0.0;0.0;3.999999975690116e-08
11,420000000,11.42,imu_link,-0.010531291998490261,-0.0009571848839101261,0.010170189270897445,-3.076092709987781e-06,6.142886802511704e-05,9.799692606705825,-4.6155707961349337e-10,5.330484785042782e-08,-4.989105559109802e-08,0.9999999999999973,0.0;0.0;0.0;0.0;0.0;0.0;0.0;0.0;0.0,7.621289842063561e-05;0.0;0.0;0.0;7.621289842063561e-05;0.0;0.0;0.0;7.621289842063561e-05,3.999999975690116e-08;0.0;0.0;0.0;3.999999975690116e-08;0.0;0.0;0.0;3.999999975690116e-08
11,440000000,11.44,imu_link,0.0007427367656344762,-0.006075746891549388,0.007990738497594923,0.0001611517937486388,-0.00029538862025450254,9.799750760258744,-4.6155707944499704e-10,5.3304847850531664e-08,-4.9891055591109944e-08,0.9999999999999973,0.0;0.0;0.0;0.0;0.0;0.0;0.0;0.0;0.0,7.621289842063561e-05;0.0;0.0;0.0;7.621289842063561e-05;0.0;0.0;0.0;7.621289842063561e-05,3.999999975690116e-08;0.0;0.0;0.0;3.999999975690116e-08;0.0;0.0;0.0;3.999999975690116e-08
11,460000000,11.46,imu_link,-0.00853399987487489,-0.004715244028797402,0.0008206807266168927,0.00010283818949221157,-0.00011669521327658825,9.800053397371526,-4.61557079475183e-10,5.33048478507529e-08,-4.9891055591121154e-08,0.9999999999999973,0.0;0.0;0.0;0.0;0.0;0.0;0.0;0.0;0.0,7.621289842063561e-05;0.0;0.0;0.0;7.621289842063561e-05;0.0;0.0;0.0;7.621289842063561e-05,3.999999975690116e-08;0.0;0.0;0.0;3.999999975690116e-08;0.0;0.0;0.0;3.999999975690116e-08
11,480000000,11.48,imu_link,-0.0026689566919556387,0.010964073134289765,0.009070296991242188,8.795871913585665e-05,-3.18855333229869e-05,9.800112868454024,-4.6155707956849144e-10,5.330484785038571e-08,-4.989105559113225e-08,0.9999999999999973,0.0;0.0;0.0;0.0;0.0;0.0;0.0;0.0;0.0,7.621289842063561e-05;0.0;0.0;0.0;7.621289842063561e-05;0.0;0.0;0.0;7.621289842063561e-05,3.999999975690116e-08;0.0;0.0;0.0;3.999999975690116e-08;0.0;0.0;0.0;3.999999975690116e-08
11,500000000,11.5,imu_link,-0.003242577019669446,-0.004357757305580344,0.0020330276898928366,8.463502456233726e-05,0.00015368835745670133,9.799608245773085,-4.6155707939119065e-10,5.330484785049063e-08,-4.9891055591145095e-08,0.9999999999999973,0.0;0.0;0.0;0.0;0.0;0.0;0.0;0.0;0.0,7.621289842063561e-05;0.0;0.0;0.0;7.621289842063561e-05;0.0;0.0;0.0;7.621289842063561e-05,3.999999975690116e-08;0.0;0.0;0.0;3.999999975690116e-08;0.0;0.0;0.0;3.999999975690116e-08
11,520000000,11.52,imu_link,0.01141426135029263,0.005464342188456113,0.0073271820690985695,-0.00022262455938981213,-0.00013558801596485237,9.800142444847346,-4.615570795880125e-10,5.330484785064467e-08,-4.989105559115541e-08,0.9999999999999973,0.0;0.0;0.0;0.0;0.0;0.0;0.0;0.0;0.0,7.621289842063561e-05;0.0;0.0;0.0;7.621289842063561e-05;0.0;0.0;0.0;7.621289842063561e-05,3.999999975690116e-08;0.0;0.0;0.0;3.999999975690116e-08;0.0;0.0;0.0;3.999999975690116e-08
11,540000000,11.54,imu_link,-0.0011178295329809197,-0.013296770348338184,-0.008076456401321238,0.00022293368771221143,0.00031952737093729017,9.800000315447162,-4.6155707954072996e-10,5.330484785027819e-08,-4.989105559116662e-08,0.9999999999999973,0.0;0.0;0.0;0.0;0.0;0.0;0.0;0.0;0.0,7.621289842063561e-05;0.0;0.0;0.0;7.621289842063561e-05;0.0;0.0;0.0;7.621289842063561e-05,3.999999975690116e-08;0.0;0.0;0.0;3.999999975690116e-08;0.0;0.0;0.0;3.999999975690116e-08
11,560000000,11.56,imu_link,-0.0036765965940107398,0.006027356551530509,-0.009388039879920106,-0.0003591218804278584,4.4907185956173144e-05,9.799814961271151,-4.615570794857801e-10,5.330484785037299e-08,-4.989105559117818e-08,0.9999999999999973,0.0;0.0;0.0;0.0;0.0;0.0;0.0;0.0;0.0,7.621289842063561e-05;0.0;0.0;0.0;7.621289842063561e-05;0.0;0.0;0.0;7.621289842063561e-05,3.999999975690116e-08;0.0;0.0;0.0;3.999999975690116e-08;0.0;0.0;0.0;3.999999975690116e-08
11,580000000,11.58,imu_link,-0.003336188148408561,-0.008835339925524845,-0.0014657515036749845,0.0003663470870547184,2.743658785736409e-05,9.800246706848627,-4.615570796472362e-10,5.33048478507127e-08,-4.989105559119113e-08,0.9999999999999973,0.0;0.0;0.0;0.0;0.0;0.0;0.0;0.0;0.0,7.621289842063561e-05;0.0;0.0;0.0;7.621289842063561e-05;0.0;0.0;0.0;7.621289842063561e-05,3.999999975690116e-08;0.0;0.0;0.0;3.999999975690116e-08;0.0;0.0;0.0;3.999999975690116e-08
11,600000000,11.6,imu_link,-0.0036350648045920986,-0.004373534976053845,-0.00035676168607279117,9.269571646290125e-05,-0.00023382728397294562,9.799874587508242,-4.6155707946687437e-10,5.3304847850821574e-08,-4.9891055591201906e-08,0.9999999999999973,0.0;0.0;0.0;0.0;0.0;0.0;0.0;0.0;0.0,7.621289842063561e-05;0.0;0.0;0.0;7.621289842063561e-05;0.0;0.0;0.0;7.621289842063561e-05,3.999999975690116e-08;0.0;0.0;0.0;3.999999975690116e-08;0.0;0.0;0.0;3.999999975690116e-08
11,620000000,11.62,imu_link,0.008581332061494671,-0.008900905216746484,0.007272180051767182,-0.00013594119051644785,0.00021421411752894969,9.800277836680735,-4.6155707941565105e-10,5.330484785046493e-08,-4.989105559121316e-08,0.9999999999999973,0.0;0.0;0.0;0.0;0.0;0.0;0.0;0.0;0.0,7.621289842063561e-05;0.0;0.0;0.0;7.621289842063561e-05;0.0;0.0;0.0;7.621289842063561e-05,3.999999975690116e-08;0.0;0.0;0.0;3.999999975690116e-08;0.0;0.0;0.0;3.999999975690116e-08
11,640000000,11.64,imu_link,-0.009291738584523604,0.009079583144673298,0.0067299540120869085,-0.0007161222880826902,-0.00020352075660909764,9.799812159329926,-4.6155707949334906e-10,5.330484785062016e-08,-4.989105559122548e-08,0.9999999999999973,0.0;0.0;0.0;0.0;0.0;0.0;0.0;0.0;0.0,7.621289842063561e-05;0.0;0.0;0.0;7.621289842063561e-05;0.0;0.0;0.0;7.621289842063561e-05,3.999999975690116e-08;0.0;0.0;0.0;3.999999975690116e-08;0.0;0.0;0.0;3.999999975690116e-08
11,660000000,11.66,imu_link,-0.013341144878892246,-0.0028828629388288726,0.0035041968905024827,-0.0005856177203321807,0.0003023758051657171,9.7997472016712,-4.61557079528033e-10,5.3304847850839646e-08,-4.989105559123744e-08,0.9999999999999973,0.0;0.0;0.0;0.0;0.0;0.0;0.0;0.0;0.0,7.621289842063561e-05;0.0;0.0;0.0;7.621289842063561e-05;0.0;0.0;0.0;7.621289842063561e-05,3.999999975690116e-08;0.0;0.0;0.0;3.999999975690116e-08;0.0;0.0;0.0;3.999999975690116e-08
11,680000000,11.68,imu_link,-0.0029722001922203594,0.0025336502131702464,0.005902545301147416,-0.0001843266945880545,5.6314635797779276e-05,9.79987614046339,-4.6155707952842906e-10,5.3304847850284456e-08,-4.989105559124973e-08,0.9999999999999973,0.0;0.0;0.0;0.0;0.0;0.0;0.0;0.0;0.0,7.621289842063561e-05;0.0;0.0;0.0;7.621289842063561e-05;0.0;0.0;0.0;7.621289842063561e-05,3.999999975690116e-08;0.0;0.0;0.0;3.999999975690116e-08;0.0;0.0;0.0;3.999999975690116e-08
11,700000000,11.7,imu_link,-0.0008718984123467008,-0.006034596091878794,0.0011740847529361838,-6.305224734439878e-05,-0.0002858805860520984,9.799618171054405,-4.6155707944438943e-10,5.330484785057938e-08,-4.9891055591262165e-08,0.9999999999999973,0.0;0.0;0.0;0.0;0.0;0.0;0.0;0.0;0.0,7.621289842063561e-05;0.0;0.0;0.0;7.621289842063561e-05;0.0;0.0;0.0;7.621289842063561e-05,3.999999975690116e-08;0.0;0.0;0.0;3.999999975690116e-08;0.0;0.0;0.0;3.999999975690116e-08
11,720000000,11.72,imu_link,0.0006518428044265497,-0.0032824198597502484,0.002240303872159099,-0.00017165372958358231,0.0001990872196803288,9.800058750014244,-4.6155707955744765e-10,5.330484785067422e-08,-4.989105559127517e-08,0.9999999999999973,0.0;0.0;0.0;0.0;0.0;0.0;0.0;0.0;0.0,7.621289842063561e-05;0.0;0.0;0.0;7.621289842063561e-05;0.0;0.0;0.0;7.621289842063561e-05,3.999999975690116e-08;0.0;0.0;0.0;3.999999975690116e-08;0.0;0.0;0.0;3.999999975690116e-08
11,740000000,11.74,imu_link,-0.002870269785744135,-0.001739612176433993,0.008349500303588895,0.00022032022257312056,0.00027779359299664026,9.800127741158247,-4.615570793702428e-10,5.3304847850325484e-08,-4.989105559128556e-08,0.9999999999999973,0.0;0.0;0.0;0.0;0.0;0.0;0.0;0.0;0.0,7.621289842063561e-05;0.0;0.0;0.0;7.621289842063561e-05;0.0;0.0;0.0;7.621289842063561e-05,3.999999975690116e-08;0.0;0.0;0.0;3.999999975690116e-08;0.0;0.0;0.0;3.999999975690116e-08
11,760000000,11.76,imu_link,0.004555871810084591,0.003571645641221487,-0.003722094110819086,2.1898041156321785e-05,0.000253400201809529,9.79983622144712,-4.615570795884701e-10,5.3304847850472775e-08,-4.9891055591297317e-08,0.9999999999999973,0.0;0.0;0.0;0.0;0.0;0.0;0.0;0.0;0.0,7.621289842063561e-05;0.0;0.0;0.0;7.621289842063561e-05;0.0;0.0;0.0;7.621289842063561e-05,3.999999975690116e-08;0.0;0.0;0.0;3.999999975690116e-08;0.0;0.0;0.0;3.999999975690116e-08
11,780000000,11.78,imu_link,-0.001800480259890926,0.01012742084896901,-0.010931873350665804,-0.000313174206029677,0.00032683333316631095,9.799711491752708,-4.6155707965629273e-10,5.330484785074808e-08,-4.9891055591310876e-08,0.9999999999999973,0.0;0.0;0.0;0.0;0.0;0.0;0.0;0.0;0.0,7.621289842063561e-05;0.0;0.0;0.0;7.621289842063561e-05;0.0;0.0;0.0;7.621289842063561e-05,3.999999975690116e-08;0.0;0.0;0.0;3.999999975690116e-08;0.0;0.0;0.0;3.999999975690116e-08
11,800000000,11.8,imu_link,0.005348765957079393,0.004265940418050982,-0.009483816455630996,3.902636063443115e-05,-0.000287468013030691,9.799919245392125,-4.6155707946976836e-10,5.3304847850856044e-08,-4.9891055591322476e-08,0.9999999999999973,0.0;0.0;0.0;0.0;0.0;0.0;0.0;0.0;0.0,7.621289842063561e-05;0.0;0.0;0.0;7.621289842063561e-05;0.0;0.0;0.0;7.621289842063561e-05,3.999999975690116e-08;0.0;0.0;0.0;3.999999975690116e-08;0.0;0.0;0.0;3.999999975690116e-08
11,820000000,11.82,imu_link,0.005463240783473479,0.0006826057919338901,0.017988371699073556,4.980157381157156e-05,-1.4073585948333418e-05,9.800020147119778,-4.615570794282275e-10,5.330484785048726e-08,-4.989105559133436e-08,0.9999999999999973,0.0;0.0;0.0;0.0;0.0;0.0;0.0;0.0;0.0,7.621289842063561e-05;0.0;0.0;0.0;7.621289842063561e-05;0.0;0.0;0.0;7.621289842063561e-05,3.999999975690116e-08;0.0;0.0;0.0;3.999999975690116e-08;0.0;0.0;0.0;3.999999975690116e-08
11,840000000,11.84,imu_link,-0.010331349049011031,-0.001509316898337735,0.008565741141242157,-2.295413846316785e-07,-0.00015983379673708073,9.800075773587437,-4.615570793869779e-10,5.330484785058543e-08,-4.9891055591345856e-08,0.9999999999999973,0.0;0.0;0.0;0.0;0.0;0.0;0.0;0.0;0.0,7.621289842063561e-05;0.0;0.0;0.0;7.621289842063561e-05;0.0;0.0;0.0;7.621289842063561e-05,3.999999975690116e-08;0.0;0.0;0.0;3.999999975690116e-08;0.0;0.0;0.0;3.999999975690116e-08
11,860000000,11.86,imu_link,0.0041559645312076975,-0.01391169971218406,-0.0029702764656972633,7.241799491493862e-05,0.0002996379385359516,9.799946341218877,-4.6155707967740445e-10,5.330484785090879e-08,-4.989105559135801e-08,0.9999999999999973,0.0;0.0;0.0;0.0;0.0;0.0;0.0;0.0;0.0,7.621289842063561e-05;0.0;0.0;0.0;7.621289842063561e-05;0.0;0.0;0.0;7.621289842063561e-05,3.999999975690116e-08;0.0;0.0;0.0;3.999999975690116e-08;0.0;0.0;0.0;3.999999975690116e-08
11,880000000,11.88,imu_link,-0.008625465044462016,0.009547810732787428,0.0024506056635009927,5.1701563201632383e-05,0.0002241162289581555,9.799876710752649,-4.6155707954445595e-10,5.330484785035423e-08,-4.989105559136896e-08,0.9999999999999973,0.0;0.0;0.0;0.0;0.0;0.0;0.0;0.0;0.0,7.621289842063561e-05;0.0;0.0;0.0;7.621289842063561e-05;0.0;0.0;0.0;7.621289842063561e-05,3.999999975690116e-08;0.0;0.0;0.0;3.999999975690116e-08;0.0;0.0;0.0;3.999999975690116e-08
11,900000000,11.9,imu_link,0.006737277508719615,0.012912579546531374,-0.01204488936739224,0.00012990166459474824,-9.683678472242714e-05,9.79987912651379,-4.6155707947353224e-10,5.330484785063873e-08,-4.989105559137904e-08,0.9999999999999973,0.0;0.0;0.0;0.0;0.0;0.0;0.0;0.0;0.0,7.621289842063561e-05;0.0;0.0;0.0;7.621289842063561e-05;0.0;0.0;0.0;7.621289842063561e-05,3.999999975690116e-08;0.0;0.0;0.0;3.999999975690116e-08;0.0;0.0;0.0;3.999999975690116e-08
11,920000000,11.92,imu_link,-0.0074289286286244845,0.0017458429949066834,0.0081777894313646,0.0001548549919582574,0.0007545979044841665,9.80006105248841,-4.615570796674632e-10,5.330484785066873e-08,-4.989105559139092e-08,0.9999999999999973,0.0;0.0;0.0;0.0;0.0;0.0;0.0;0.0;0.0,7.621289842063561e-05;0.0;0.0;0.0;7.621289842063561e-05;0.0;0.0;0.0;7.621289842063561e-05,3.999999975690116e-08;0.0;0.0;0.0;3.999999975690116e-08;0.0;0.0;0.0;3.999999975690116e-08
11,940000000,11.94,imu_link,0.005676975229116245,0.0012570499111533614,0.012401612001664156,3.9006821491273375e-05,-6.68192503950453e-05,9.79960193607342,-4.615570796100244e-10,5.330484785030049e-08,-4.9891055591402044e-08,0.9999999999999973,0.0;0.0;0.0;0.0;0.0;0.0;0.0;0.0;0.0,7.621289842063561e-05;0.0;0.0;0.0;7.621289842063561e-05;0.0;0.0;0.0;7.621289842063561e-05,3.999999975690116e-08;0.0;0.0;0.0;3.999999975690116e-08;0.0;0.0;0.0;3.999999975690116e-08
11,960000000,11.96,imu_link,-0.0035300160938586465,-0.0023662819643581567,0.009984605595314534,-0.00023562779327532008,0.0001704086251679275,9.79992470740623,-4.6155707966873854e-10,5.330484785057894e-08,-4.989105559141432e-08,0.9999999999999973,0.0;0.0;0.0;0.0;0.0;0.0;0.0;0.0;0.0,7.621289842063561e-05;0.0;0.0;0.0;7.621289842063561e-05;0.0;0.0;0.0;7.621289842063561e-05,3.999999975690116e-08;0.0;0.0;0.0;3.999999975690116e-08;0.0;0.0;0.0;3.999999975690116e-08
11,980000000,11.98,imu_link,-0.008018772358438732,0.011659280048886065,0.015685729730360497,-0.00035013741949955633,-4.1792388027621206e-05,9.800123799645862,-4.6155707937932774e-10,5.3304847850641513e-08,-4.9891055591423544e-08,0.9999999999999973,0.0;0.0;0.0;0.0;0.0;0.0;0.0;0.0;0.0,7.621289842063561e-05;0.0;0.0;0.0;7.621289842063561e-05;0.0;0.0;0.0;7.621289842063561e-05,3.999999975690116e-08;0.0;0.0;0.0;3.999999975690116e-08;0.0;0.0;0.0;3.999999975690116e-08
12,0,12.0,imu_link,0.009438353232918322,0.0012667108018218772,0.010611814720586837,-0.00020450283850064643,0.00029904461877742496,9.79982126854542,-4.615570795892562e-10,5.3304847850325365e-08,-4.989105559143489e-08,0.9999999999999973,0.0;0.0;0.0;0.0;0.0;0.0;0.0;0.0;0.0,7.621289842063561e-05;0.0;0.0;0.0;7.621289842063561e-05;0.0;0.0;0.0;7.621289842063561e-05,3.999999975690116e-08;0.0;0.0;0.0;3.999999975690116e-08;0.0;0.0;0.0;3.999999975690116e-08
12,20000000,12.02,imu_link,0.009565354112161183,-0.009209133089197657,0.002996440191770558,-0.00021152679571188686,5.39870747683472e-05,9.800027162958209,-4.615570795449631e-10,5.3304847850431284e-08,-4.9891055591445494e-08,0.9999999999999973,0.0;0.0;0.0;0.0;0.0;0.0;0.0;0.0;0.0,7.621289842063561e-05;0.0;0.0;0.0;7.621289842063561e-05;0.0;0.0;0.0;7.621289842063561e-05,3.999999975690116e-08;0.0;0.0;0.0;3.999999975690116e-08;0.0;0.0;0.0;3.999999975690116e-08
12,40000000,12.04,imu_link,-0.00990960120815821,-0.008933835484891342,0.005363418491637751,-5.1397659444163544e-05,0.00010720973257488931,9.799954905803594,-4.6155707959319074e-10,5.330484785058151e-08,-4.9891055591456744e-08,0.9999999999999973,0.0;0.0;0.0;0.0;0.0;0.0;0.0;0.0;0.0,7.621289842063561e-05;0.0;0.0;0.0;7.621289842063561e-05;0.0;0.0;0.0;7.621289842063561e-05,3.999999975690116e-08;0.0;0.0;0.0;3.999999975690116e-08;0.0;0.0;0.0;3.999999975690116e-08
12,60000000,12.06,imu_link,-0.0024351717168583408,0.0008552131809792481,-0.012132154965896251,-0.00014999071130755403,-0.00027645871402048227,9.799859160408367,-4.615570795073547e-10,5.3304847850864316e-08,-4.989105559146812e-08,0.9999999999999973,0.0;0.0;0.0;0.0;0.0;0.0;0.0;0.0;0.0,7.621289842063561e-05;0.0;0.0;0.0;7.621289842063561e-05;0.0;0.0;0.0;7.621289842063561e-05,3.999999975690116e-08;0.0;0.0;0.0;3.999999975690116e-08;0.0;0.0;0.0;3.999999975690116e-08
12,80000000,12.08,imu_link,-0.002697328577225172,0.00545444348157824,-0.006464633504904433,-7.407822727346516e-05,0.000205691421597223,9.80006114111497,-4.615570796038937e-10,5.33048478505023e-08,-4.989105559147892e-08,0.9999999999999973,0.0;0.0;0.0;0.0;0.0;0.0;0.0;0.0;0.0,7.621289842063561e-05;0.0;0.0;0.0;7.621289842063561e-05;0.0;0.0;0.0;7.621289842063561e-05,3.999999975690116e-08;0.0;0.0;0.0;3.999999975690116e-08;0.0;0.0;0.0;3.999999975690116e-08
12,100000000,12.1,imu_link,0.0056999278268312255,0.005123611325387862,0.00014588987535636138,-8.597569400202209e-05,0.00013749021677195053,9.799534243023583,-4.6155707941666735e-10,5.3304847850628484e-08,-4.989105559148861e-08,0.9999999999999973,0.0;0.0;0.0;0.0;0.0;0.0;0.0;0.0;0.0,7.621289842063561e-05;0.0;0.0;0.0;7.621289842063561e-05;0.0;0.0;0.0;7.621289842063561e-05,3.999999975690116e-08;0.0;0.0;0.0;3.999999975690116e-08;0.0;0.0;0.0;3.999999975690116e-08
12,120000000,12.12,imu_link,0.005375958909298057,0.001013915850892332,0.002656337219650596,-0.00013095597675490768,-0.000148231799165111,9.799696271586642,-4.615570794799673e-10,5.330484785078362e-08,-4.989105559149854e-08,0.9999999999999973,0.0;0.0;0.0;0.0;0.0;0.0;0.0;0.0;0.0,7.621289842063561e-05;0.0;0.0;0.0;7.621289842063561e-05;0.0;0.0;0.0;7.621289842063561e-05,3.999999975690116e-08;0.0;0.0;0.0;3.999999975690116e-08;0.0;0.0;0.0;3.999999975690116e-08
12,140000000,12.14,imu_link,0.01939976632108525,0.0028406345871367757,-0.002891682818537947,-0.00018094544112911746,0.0003996928321468066,9.800009277042879,-4.6155707942304155e-10,5.33048478504219e-08,-4.989105559150811e-08,0.9999999999999973,0.0;0.0;0.0;0.0;0.0;0.0;0.0;0.0;0.0,7.621289842063561e-05;0.0;0.0;0.0;7.621289842063561e-05;0.0;0.0;0.0;7.621289842063561e-05,3.999999975690116e-08;0.0;0.0;0.0;3.999999975690116e-08;0.0;0.0;0.0;3.999999975690116e-08
12,160000000,12.16,imu_link,0.010252658240253941,-0.007350006034909729,0.01404002673425287,5.961454896783212e-06,0.0001860327964186187,9.799689994479818,-4.615570796316413e-10,5.330484785057028e-08,-4.989105559151734e-08,0.9999999999999973,0.0;0.0;0.0;0.0;0.0;0.0;0.0;0.0;0.0,7.621289842063561e-05;0.0;0.0;0.0;7.621289842063561e-05;0.0;0.0;0.0;7.621289842063561e-05,3.999999975690116e-08;0.0;0.0;0.0;3.999999975690116e-08;0.0;0.0;0.0;3.999999975690116e-08
12,180000000,12.18,imu_link,-0.009545118663076094,-0.008965718878876065,0.01141277999014743,1.2183697199054865e-05,-2.469409320612075e-05,9.800337589525306,-4.615570796977811e-10,5.330484785085705e-08,-4.9891055591528034e-08,0.9999999999999973,0.0;0.0;0.0;0.0;0.0;0.0;0.0;0.0;0.0,7.621289842063561e-05;0.0;0.0;0.0;7.621289842063561e-05;0.0;0.0;0.0;7.621289842063561e-05,3.999999975690116e-08;0.0;0.0;0.0;3.999999975690116e-08;0.0;0.0;0.0;3.999999975690116e-08
12,200000000,12.2,imu_link,0.0028262424473059953,-0.007445123867035414,-0.010104381845419882,0.00023395782022211527,-0.00013658384540895686,9.79994771133788,-4.615570794549274e-10,5.330484785026811e-08,-4.9891055591535995e-08,0.9999999999999973,0.0;0.0;0.0;0.0;0.0;0.0;0.0;0.0;0.0,7.621289842063561e-05;0.0;0.0;0.0;7.621289842063561e-05;0.0;0.0;0.0;7.621289842063561e-05,3.999999975690116e-08;0.0;0.0;0.0;3.999999975690116e-08;0.0;0.0;0.0;3.999999975690116e-08
12,220000000,12.22,imu_link,0.007734396643859027,0.007967929103141673,-0.007214167221625374,5.2884111823537576e-06,-7.735363879804742e-05,9.800213974637689,-4.6155707948494175e-10,5.330484785062056e-08,-4.9891055591544194e-08,0.9999999999999973,0.0;0.0;0.0;0.0;0.0;0.0;0.0;0.0;0.0,7.621289842063561e-05;0.0;0.0;0.0;7.621289842063561e-05;0.0;0.0;0.0;7.621289842063561e-05,3.999999975690116e-08;0.0;0.0;0.0;3.999999975690116e-08;0.0;0.0;0.0;3.999999975690116e-08
12,240000000,12.24,imu_link,0.0023005154569932956,-0.0008700442790722511,9.197319077986968e-05,-0.0002490901773698971,4.976951905016788e-05,9.799708277704132,-4.6155707943782906e-10,5.330484785073631e-08,-4.989105559155501e-08,0.9999999999999973,0.0;0.0;0.0;0.0;0.0;0.0;0.0;0.0;0.0,7.621289842063561e-05;0.0;0.0;0.0;7.621289842063561e-05;0.0;0.0;0.0;7.621289842063561e-05,3.999999975690116e-08;0.0;0.0;0.0;3.999999975690116e-08;0.0;0.0;0.0;3.999999975690116e-08
12,260000000,12.26,imu_link,-0.003112805618884334,-0.00614140184607468,0.004873204801622621,0.00018542226133227505,6.551876166766146e-05,9.800108206547296,-4.615570795450388e-10,5.33048478502465e-08,-4.989105559156599e-08,0.9999999999999973,0.0;0.0;0.0;0.0;0.0;0.0;0.0;0.0;0.0,7.621289842063561e-05;0.0;0.0;0.0;7.621289842063561e-05;0.0;0.0;0.0;7.621289842063561e-05,3.999999975690116e-08;0.0;0.0;0.0;3.999999975690116e-08;0.0;0.0;0.0;3.999999975690116e-08
12,280000000,12.28,imu_link,0.011946504137595963,0.014883101974018742,-0.001921732966445595,5.408888438950622e-05,0.0005489366287006141,9.799985387916584,-4.6155707960363483e-10,5.330484785053785e-08,-4.9891055591575924e-08,0.9999999999999973,0.0;0.0;0.0;0.0;0.0;0.0;0.0;0.0;0.0,7.621289842063561e-05;0.0;0.0;0.0;7.621289842063561e-05;0.0;0.0;0.0;7.621289842063561e-05,3.999999975690116e-08;0.0;0.0;0.0;3.999999975690116e-08;0.0;0.0;0.0;3.999999975690116e-08
12,300000000,12.3,imu_link,-0.013050078802853396,0.004092295305928016,0.019315026257919837,-0.00011115215119672015,7.029599834525947e-05,9.799869944223012,-4.615570794290355e-10,5.330484785065122e-08,-4.9891055591585414e-08,0.9999999999999973,0.0;0.0;0.0;0.0;0.0;0.0;0.0;0.0;0.0,7.621289842063561e-05;0.0;0.0;0.0;7.621289842063561e-05;0.0;0.0;0.0;7.621289842063561e-05,3.999999975690116e-08;0.0;0.0;0.0;3.999999975690116e-08;0.0;0.0;0.0;3.999999975690116e-08
12,320000000,12.32,imu_link,0.007987245969990295,-0.006281402324306991,-0.004897373099265095,0.00031574561047924575,-0.00016049348672993763,9.799784575977334,-4.615570793403275e-10,5.330484785082042e-08,-4.989105559159585e-08,0.9999999999999973,0.0;0.0;0.0;0.0;0.0;0.0;0.0;0.0;0.0,7.621289842063561e-05;0.0;0.0;0.0;7.621289842063561e-05;0.0;0.0;0.0;7.621289842063561e-05,3.999999975690116e-08;0.0;0.0;0.0;3.999999975690116e-08;0.0;0.0;0.0;3.999999975690116e-08
12,340000000,12.34,imu_link,0.0006224602010371867,-0.02098473881423517,0.002809027451242026,-9.427315843445648e-05,-0.00013781165150296518,9.799722718796072,-4.615570794093213e-10,5.330484785051246e-08,-4.989105559160293e-08,0.9999999999999973,0.0;0.0;0.0;0.0;0.0;0.0;0.0;0.0;0.0,7.621289842063561e-05;0.0;0.0;0.0;7.621289842063561e-05;0.0;0.0;0.0;7.621289842063561e-05,3.999999975690116e-08;0.0;0.0;0.0;3.999999975690116e-08;0.0;0.0;0.0;3.999999975690116e-08
12,360000000,12.36,imu_link,0.003215583893943773,0.004291093105175335,0.010814700621960502,-0.00038441247619248783,-0.0002131834278662532,9.799515990195143,-4.6155707948597076e-10,5.3304847850668427e-08,-4.989105559161484e-08,0.9999999999999973,0.0;0.0;0.0;0.0;0.0;0.0;0.0;0.0;0.0,7.621289842063561e-05;0.0;0.0;0.0;7.621289842063561e-05;0.0;0.0;0.0;7.621289842063561e-05,3.999999975690116e-08;0.0;0.0;0.0;3.999999975690116e-08;0.0;0.0;0.0;3.999999975690116e-08
12,380000000,12.38,imu_link,-0.012168891928818126,-0.005013368486490678,0.013283085290750698,4.005517422448786e-06,0.00028046631242363166,9.79997575727966,-4.615570795769915e-10,5.330484785030251e-08,-4.989105559162406e-08,0.9999999999999973,0.0;0.0;0.0;0.0;0.0;0.0;0.0;0.0;0.0,7.621289842063561e-05;0.0;0.0;0.0;7.621289842063561e-05;0.0;0.0;0.0;7.621289842063561e-05,3.999999975690116e-08;0.0;0.0;0.0;3.999999975690116e-08;0.0;0.0;0.0;3.999999975690116e-08
12,400000000,12.4,imu_link,-0.005601713693958981,-0.005340835312809527,0.0056111918356610705,0.00013286965022718587,0.0003944167693010449,9.8000099531724,-4.615570794121473e-10,5.330484785041741e-08,-4.9891055591635726e-08,0.9999999999999973,0.0;0.0;0.0;0.0;0.0;0.0;0.0;0.0;0.0,7.621289842063561e-05;0.0;0.0;0.0;7.621289842063561e-05;0.0;0.0;0.0;7.621289842063561e-05,3.999999975690116e-08;0.0;0.0;0.0;3.999999975690116e-08;0.0;0.0;0.0;3.999999975690116e-08
12,420000000,12.42,imu_link,0.006223363845427367,0.0040527107726795585,-0.005406917264958523,8.946688139387871e-06,0.00034983575704221933,9.799601556363656,-4.6155707950744173e-10,5.330484785057753e-08,-4.989105559164717e-08,0.9999999999999973,0.0;0.0;0.0;0.0;0.0;0.0;0.0;0.0;0.0,7.621289842063561e-05;0.0;0.0;0.0;7.621289842063561e-05;0.0;0.0;0.0;7.621289842063561e-05,3.999999975690116e-08;0.0;0.0;0.0;3.999999975690116e-08;0.0;0.0;0.0;3.999999975690116e-08
12,440000000,12.44,imu_link,0.006998420854648355,-0.00749172731174938,-0.0022731797744228468,0.00030961363028322294,9.971030362673398e-05,9.79992014899362,-4.615570795837763e-10,5.330484785074335e-08,-4.9891055591658053e-08,0.9999999999999973,0.0;0.0;0.0;0.0;0.0;0.0;0.0;0.0;0.0,7.621289842063561e-05;0.0;0.0;0.0;7.621289842063561e-05;0.0;0.0;0.0;7.621289842063561e-05,3.999999975690116e-08;0.0;0.0;0.0;3.999999975690116e-08;0.0;0.0;0.0;3.999999975690116e-08
12,460000000,12.46,imu_link,0.0074325528269665745,-0.0010875038203239941,0.01893540705119543,-8.736234686183034e-05,0.00032196230967531877,9.799976107643177,-4.615570795693995e-10,5.330484785039234e-08,-4.9891055591669257e-08,0.9999999999999973,0.0;0.0;0.0;0.0;0.0;0.0;0.0;0.0;0.0,7.621289842063561e-05;0.0;0.0;0.0;7.621289842063561e-05;0.0;0.0;0.0;7.621289842063561e-05,3.999999975690116e-08;0.0;0.0;0.0;3.999999975690116e-08;0.0;0.0;0.0;3.999999975690116e-08
12,480000000,12.48,imu_link,-0.02250546432048424,-0.008808517720565255,-0.002845387844250476,-9.144240424004169e-05,0.00020646602131383686,9.799771229929375,-4.6155707939335176e-10,5.330484785052042e-08,-4.9891055591680956e-08,0.9999999999999973,0.0;0.0;0.0;0.0;0.0;0.0;0.0;0.0;0.0,7.621289842063561e-05;0.0;0.0;0.0;7.621289842063561e-05;0.0;0.0;0.0;7.621289842063561e-05,3.999999975690116e-08;0.0;0.0;0.0;3.999999975690116e-08;0.0;0.0;0.0;3.999999975690116e-08
12,500000000,12.5,imu_link,0.00542804161374368,0.006248902380528387,-0.0030768553652711886,-0.00011245022886947491,-0.00010365712938015206,9.799885071379066,-4.6155707945896657e-10,5.330484785068545e-08,-4.989105559169213e-08,0.9999999999999973,0.0;0.0;0.0;0.0;0.0;0.0;0.0;0.0;0.0,7.621289842063561e-05;0.0;0.0;0.0;7.621289842063561e-05;0.0;0.0;0.0;7.621289842063561e-05,3.999999975690116e-08;0.0;0.0;0.0;3.999999975690116e-08;0.0;0.0;0.0;3.999999975690116e-08
12,520000000,12.52,imu_link,-0.0019426741688115079,0.0033160265794393733,0.007844173856117919,-0.0005745980144757148,0.00013346420824950645,9.799942247662344,-4.615570794175081e-10,5.330484785031714e-08,-4.989105559170391e-08,0.9999999999999973,0.0;0.0;0.0;0.0;0.0;0.0;0.0;0.0;0.0,7.621289842063561e-05;0.0;0.0;0.0;7.621289842063561e-05;0.0;0.0;0.0;7.621289842063561e-05,3.999999975690116e-08;0.0;0.0;0.0;3.999999975690116e-08;0.0;0.0;0.0;3.999999975690116e-08
12,540000000,12.54,imu_link,0.011622605536308955,-0.00446077950728828,-0.0020949734476035458,-0.00010153540337369642,0.00012385390603075104,9.799619766491574,-4.615570795215225e-10,5.330484785040362e-08,-4.989105559171626e-08,0.9999999999999973,0.0;0.0;0.0;0.0;0.0;0.0;0.0;0.0;0.0,7.621289842063561e-05;0.0;0.0;0.0;7.621289842063561e-05;0.0;0.0;0.0;7.621289842063561e-05,3.999999975690116e-08;0.0;0.0;0.0;3.999999975690116e-08;0.0;0.0;0.0;3.999999975690116e-08
12,560000000,12.56,imu_link,-0.005915777129165784,-0.00809264079801715,-0.00473515783934878,-0.00020966541352385274,0.00024299545677772608,9.800071880035828,-4.615570794341465e-10,5.330484785068555e-08,-4.9891055591728344e-08,0.9999999999999973,0.0;0.0;0.0;0.0;0.0;0.0;0.0;0.0;0.0,7.621289842063561e-05;0.0;0.0;0.0;7.621289842063561e-05;0.0;0.0;0.0;7.621289842063561e-05,3.999999975690116e-08;0.0;0.0;0.0;3.999999975690116e-08;0.0;0.0;0.0;3.999999975690116e-08
12,580000000,12.58,imu_link,-0.004050404422590407,-0.0030990319636910284,0.008608029909250133,9.344177913581557e-05,0.00017257958375059665,9.799659635838836,-4.6155707937661826e-10,5.3304847850307935e-08,-4.989105559173988e-08,0.9999999999999973,0.0;0.0;0.0;0.0;0.0;0.0;0.0;0.0;0.0,7.621289842063561e-05;0.0;0.0;0.0;7.621289842063561e-05;0.0;0.0;0.0;7.621289842063561e-05,3.999999975690116e-08;0.0;0.0;0.0;3.999999975690116e-08;0.0;0.0;0.0;3.999999975690116e-08
12,600000000,12.6,imu_link,0.004195330735236985,-6.930509024299935e-05,-0.029040599448464176,0.00020816559135765497,-0.00031536143079820647,9.799975411386638,-4.615570794463798e-10,5.33048478504643e-08,-4.989105559175157e-08,0.9999999999999973,0.0;0.0;0.0;0.0;0.0;0.0;0.0;0.0;0.0,7.621289842063561e-05;0.0;0.0;0.0;7.621289842063561e-05;0.0;0.0;0.0;7.621289842063561e-05,3.999999975690116e-08;0.0;0.0;0.0;3.999999975690116e-08;0.0;0.0;0.0;3.999999975690116e-08
12,620000000,12.62,imu_link,0.011741873592085745,0.0009366543742725767,0.005058592457010908,-0.00023434590150874364,0.00015862170244900124,9.799909369920815,-4.6155707954078616e-10,5.3304847850437504e-08,-4.9891055591764674e-08,0.9999999999999973,0.0;0.0;0.0;0.0;0.0;0.0;0.0;0.0;0.0,7.621289842063561e-05;0.0;0.0;0.0;7.621289842063561e-05;0.0;0.0;0.0;7.621289842063561e-05,3.999999975690116e-08;0.0;0.0;0.0;3.999999975690116e-08;0.0;0.0;0.0;3.999999975690116e-08
12,640000000,12.64,imu_link,-0.004550470007320865,0.004654920788469377,0.0010584151621690183,-0.00014735772248825754,-0.00018344478708570163,9.799849116064697,-4.615570794587077e-10,5.3304847850256405e-08,-4.989105559177649e-08,0.9999999999999973,0.0;0.0;0.0;0.0;0.0;0.0;0.0;0.0;0.0,7.621289842063561e-05;0.0;0.0;0.0;7.621289842063561e-05;0.0;0.0;0.0;7.621289842063561e-05,3.999999975690116e-08;0.0;0.0;0.0;3.999999975690116e-08;0.0;0.0;0.0;3.999999975690116e-08
12,660000000,12.66,imu_link,-0.002334555637236095,-0.004593220424457592,0.009940650596941299,-0.0004974153817163332,0.0003645992445714377,9.799894826279234,-4.6155707955000814e-10,5.330484785034885e-08,-4.9891055591788596e-08,0.9999999999999973,0.0;0.0;0.0;0.0;0.0;0.0;0.0;0.0;0.0,7.621289842063561e-05;0.0;0.0;0.0;7.621289842063561e-05;0.0;0.0;0.0;7.621289842063561e-05,3.999999975690116e-08;0.0;0.0;0.0;3.999999975690116e-08;0.0;0.0;0.0;3.999999975690116e-08
12,680000000,12.68,imu_link,-0.0014101257109706141,0.0101684051866519,-0.01479003506292318,5.286252995405409e-05,0.0005017126509048786,9.799706581612945,-4.6155707947346193e-10,5.330484785063178e-08,-4.989105559179987e-08,0.9999999999999973,0.0;0.0;0.0;0.0;0.0;0.0;0.0;0.0;0.0,7.621289842063561e-05;0.0;0.0;0.0;7.621289842063561e-05;0.0;0.0;0.0;7.621289842063561e-05,3.999999975690116e-08;0.0;0.0;0.0;3.999999975690116e-08;0.0;0.0;0.0;3.999999975690116e-08
12,700000000,12.7,imu_link,-0.005086137189133361,-0.009909183183225763,0.00333035977833635,3.7762790364074015e-05,-3.714863486838221e-05,9.800004441200114,-4.615570794379958e-10,5.330484785073172e-08,-4.989105559181078e-08,0.9999999999999973,0.0;0.0;0.0;0.0;0.0;0.0;0.0;0.0;0.0,7.621289842063561e-05;0.0;0.0;0.0;7.621289842063561e-05;0.0;0.0;0.0;7.621289842063561e-05,3.999999975690116e-08;0.0;0.0;0.0;3.999999975690116e-08;0.0;0.0;0.0;3.999999975690116e-08
12,720000000,12.72,imu_link,-0.005871247363174087,-0.004013335453071044,-0.01582888940041638,-4.884193649448266e-05,2.522310172571059e-07,9.800043283006575,-4.615570793661037e-10,5.330484785088646e-08,-4.989105559182345e-08,0.9999999999999973,0.0;0.0;0.0;0.0;0.0;0.0;0.0;0.0;0.0,7.621289842063561e-05;0.0;0.0;0.0;7.621289842063561e-05;0.0;0.0;0.0;7.621289842063561e-05,3.999999975690116e-08;0.0;0.0;0.0;3.999999975690116e-08;0.0;0.0;0.0;3.999999975690116e-08
12,740000000,12.74,imu_link,-0.005427572031661487,-0.01168293595075084,0.01027372241226783,-8.56788239358493e-05,5.607773308463444e-05,9.800247771272616,-4.615570794646024e-10,5.3304847850379674e-08,-4.9891055591834594e-08,0.9999999999999973,0.0;0.0;0.0;0.0;0.0;0.0;0.0;0.0;0.0,7.621289842063561e-05;0.0;0.0;0.0;7.621289842063561e-05;0.0;0.0;0.0;7.621289842063561e-05,3.999999975690116e-08;0.0;0.0;0.0;3.999999975690116e-08;0.0;0.0;0.0;3.999999975690116e-08
12,760000000,12.76,imu_link,-0.014617059527686828,-0.008958663432788892,0.003282276830754758,-6.586270492282106e-05,-2.6570298822608027e-05,9.800148718591624,-4.615570794981098e-10,5.330484785071776e-08,-4.989105559184645e-08,0.9999999999999973,0.0;0.0;0.0;0.0;0.0;0.0;0.0;0.0;0.0,7.621289842063561e-05;0.0;0.0;0.0;7.621289842063561e-05;0.0;0.0;0.0;7.621289842063561e-05,3.999999975690116e-08;0.0;0.0;0.0;3.999999975690116e-08;0.0;0.0;0.0;3.999999975690116e-08
12,780000000,12.78,imu_link,0.010819160520315917,0.01424336528252998,-0.0066511993571449195,0.00013783692442241195,-0.00016215839654896757,9.800014897558098,-4.6155707945714926e-10,5.330484785034645e-08,-4.9891055591857986e-08,0.9999999999999973,0.0;0.0;0.0;0.0;0.0;0.0;0.0;0.0;0.0,7.621289842063561e-05;0.0;0.0;0.0;7.621289842063561e-05;0.0;0.0;0.0;7.621289842063561e-05,3.999999975690116e-08;0.0;0.0;0.0;3.999999975690116e-08;0.0;0.0;0.0;3.999999975690116e-08
12,800000000,12.8,imu_link,0.004121023963693309,-0.0274984734581985,0.014665782123975204,-0.00024197103441858414,-2.3500806560367487e-05,9.79989762664445,-4.615570794166257e-10,5.330484785043253e-08,-4.98910555918696e-08,0.9999999999999973,0.0;0.0;0.0;0.0;0.0;0.0;0.0;0.0;0.0,7.621289842063561e-05;0.0;0.0;0.0;7.621289842063561e-05;0.0;0.0;0.0;7.621289842063561e-05,3.999999975690116e-08;0.0;0.0;0.0;3.999999975690116e-08;0.0;0.0;0.0;3.999999975690116e-08
12,820000000,12.82,imu_link,-0.02179763116422195,-0.0010657322173581328,-0.008853519469067385,-0.00020764919957431732,0.0002834028929405508,9.799943231765107,-4.615570793893754e-10,5.330484785053695e-08,-4.9891055591879784e-08,0.9999999999999973,0.0;0.0;0.0;0.0;0.0;0.0;0.0;0.0;0.0,7.621289842063561e-05;0.0;0.0;0.0;7.621289842063561e-05;0.0;0.0;0.0;7.621289842063561e-05,3.999999975690116e-08;0.0;0.0;0.0;3.999999975690116e-08;0.0;0.0;0.0;3.999999975690116e-08
12,840000000,12.84,imu_link,-0.026741194098341265,0.0017711942673946655,0.009222515324982056,0.00010512259066963575,0.00012418541078652276,9.799687000588884,-4.615570796915962e-10,5.33048478508624e-08,-4.9891055591890524e-08,0.9999999999999973,0.0;0.0;0.0;0.0;0.0;0.0;0.0;0.0;0.0,7.621289842063561e-05;0.0;0.0;0.0;7.621289842063561e-05;0.0;0.0;0.0;7.621289842063561e-05,3.999999975690116e-08;0.0;0.0;0.0;3.999999975690116e-08;0.0;0.0;0.0;3.999999975690116e-08
12,860000000,12.86,imu_link,0.0010714043678315016,-0.007533749600737235,-0.004779491061107989,-0.00030083027793022525,-0.00015514166946413045,9.799751134367886,-4.615570795229661e-10,5.330484785049576e-08,-4.989105559190204e-08,0.9999999999999973,0.0;0.0;0.0;0.0;0.0;0.0;0.0;0.0;0.0,7.621289842063561e-05;0.0;0.0;0.0;7.621289842063561e-05;0.0;0.0;0.0;7.621289842063561e-05,3.999999975690116e-08;0.0;0.0;0.0;3.999999975690116e-08;0.0;0.0;0.0;3.999999975690116e-08
12,880000000,12.88,imu_link,0.007391763462648015,0.004257224740327938,-0.013067419120771376,-0.00011455857703085917,0.00021350382920319814,9.799577510148502,-4.6155707958784793e-10,5.330484785052079e-08,-4.9891055591912256e-08,0.9999999999999973,0.0;0.0;0.0;0.0;0.0;0.0;0.0;0.0;0.0,7.621289842063561e-05;0.0;0.0;0.0;7.621289842063561e-05;0.0;0.0;0.0;7.621289842063561e-05,3.999999975690116e-08;0.0;0.0;0.0;3.999999975690116e-08;0.0;0.0;0.0;3.999999975690116e-08
12,900000000,12.9,imu_link,0.008337535504405353,0.02118967680968591,0.002489746715670822,-0.0002888382504453215,5.690183167442884e-05,9.799815691145739,-4.615570795166445e-10,5.330484785079313e-08,-4.9891055591922334e-08,0.9999999999999973,0.0;0.0;0.0;0.0;0.0;0.0;0.0;0.0;0.0,7.621289842063561e-05;0.0;0.0;0.0;7.621289842063561e-05;0.0;0.0;0.0;7.621289842063561e-05,3.999999975690116e-08;0.0;0.0;0.0;3.999999975690116e-08;0.0;0.0;0.0;3.999999975690116e-08
12,920000000,12.92,imu_link,-0.01959271039905181,-0.009904165423576368,0.0007615106829404581,-0.00019102751130186584,0.0001482874631484996,9.799808137717465,-4.61557079475099e-10,5.330484785088817e-08,-4.98910555919321e-08,0.9999999999999973,0.0;0.0;0.0;0.0;0.0;0.0;0.0;0.0;0.0,7.621289842063561e-05;0.0;0.0;0.0;7.621289842063561e-05;0.0;0.0;0.0;7.621289842063561e-05,3.999999975690116e-08;0.0;0.0;0.0;3.999999975690116e-08;0.0;0.0;0.0;3.999999975690116e-08
12,940000000,12.94,imu_link,-0.005581298268236076,0.0048881111522650605,-0.004074721939077564,-0.0004179839320307819,-0.00010681803571007585,9.80002909188321,-4.615570794385563e-10,5.330484785040132e-08,-4.989105559194409e-08,0.9999999999999973,0.0;0.0;0.0;0.0;0.0;0.0;0.0;0.0;0.0,7.621289842063561e-05;0.0;0.0;0.0;7.621289842063561e-05;0.0;0.0;0.0;7.621289842063561e-05,3.999999975690116e-08;0.0;0.0;0.0;3.999999975690116e-08;0.0;0.0;0.0;3.999999975690116e-08
12,960000000,12.96,imu_link,0.009736532997466024,-0.0023736889542828785,0.009780167069355424,6.136786855355232e-05,0.00017867555474181197,9.799684618334826,-4.615570794870045e-10,5.330484785054361e-08,-4.9891055591952305e-08,0.9999999999999973,0.0;0.0;0.0;0.0;0.0;0.0;0.0;0.0;0.0,7.621289842063561e-05;0.0;0.0;0.0;7.621289842063561e-05;0.0;0.0;0.0;7.621289842063561e-05,3.999999975690116e-08;0.0;0.0;0.0;3.999999975690116e-08;0.0;0.0;0.0;3.999999975690116e-08
12,980000000,12.98,imu_link,0.008784641396267135,0.009242638224227868,0.0074717968292828535,6.381069907473694e-05,0.000304448575346753,9.799762013755393,-4.6155707950312287e-10,5.3304847850884195e-08,-4.98910555919627e-08,0.9999999999999973,0.0;0.0;0.0;0.0;0.0;0.0;0.0;0.0;0.0,7.621289842063561e-05;0.0;0.0;0.0;7.621289842063561e-05;0.0;0.0;0.0;7.621289842063561e-05,3.999999975690116e-08;0.0;0.0;0.0;3.999999975690116e-08;0.0;0.0;0.0;3.999999975690116e-08
13,0,13.0,imu_link,-0.015184676512916023,-0.01681186814426311,0.009744018584272785,-0.00027419555880596203,2.9531145004322445e-05,9.799690053015283,-4.6155707960976827e-10,5.33048478505099e-08,-4.9891055591973024e-08,0.9999999999999973,0.0;0.0;0.0;0.0;0.0;0.0;0.0;0.0;0.0,7.621289842063561e-05;0.0;0.0;0.0;7.621289842063561e-05;0.0;0.0;0.0;7.621289842063561e-05,3.999999975690116e-08;0.0;0.0;0.0;3.999999975690116e-08;0.0;0.0;0.0;3.999999975690116e-08
13,20000000,13.02,imu_link,0.0004950462581589177,-0.006401773858408585,-0.007157022731206966,-0.00018849009423588085,-0.00017047437331552828,9.79989555222126,-4.6155707942716194e-10,5.330484785060282e-08,-4.9891055591981845e-08,0.9999999999999973,0.0;0.0;0.0;0.0;0.0;0.0;0.0;0.0;0.0,7.621289842063561e-05;0.0;0.0;0.0;7.621289842063561e-05;0.0;0.0;0.0;7.621289842063561e-05,3.999999975690116e-08;0.0;0.0;0.0;3.999999975690116e-08;0.0;0.0;0.0;3.999999975690116e-08
13,40000000,13.04,imu_link,-0.0004350524079723445,0.0015911791610670864,-0.010753483163028833,0.00010157461817209085,0.00014774706061380965,9.799968362663469,-4.6155707939555175e-10,5.3304847850696035e-08,-4.9891055591991334e-08,0.9999999999999973,0.0;0.0;0.0;0.0;0.0;0.0;0.0;0.0;0.0,7.621289842063561e-05;0.0;0.0;0.0;7.621289842063561e-05;0.0;0.0;0.0;7.621289842063561e-05,3.999999975690116e-08;0.0;0.0;0.0;3.999999975690116e-08;0.0;0.0;0.0;3.999999975690116e-08
13,60000000,13.06,imu_link,-0.0030114491074339856,-0.011856551077407563,0.01226544641638684,3.225820873695993e-05,7.591003874910685e-05,9.79985326851936,-4.61557079369828e-10,5.3304847850324386e-08,-4.9891055591999864e-08,0.9999999999999973,0.0;0.0;0.0;0.0;0.0;0.0;0.0;0.0;0.0,7.621289842063561e-05;0.0;0.0;0.0;7.621289842063561e-05;0.0;0.0;0.0;7.621289842063561e-05,3.999999975690116e-08;0.0;0.0;0.0;3.999999975690116e-08;0.0;0.0;0.0;3.999999975690116e-08
13,80000000,13.08,imu_link,0.0015006205950526211,0.011245314412856396,-0.0005980000491199784,-0.0002721399823695486,0.00026715783999914285,9.79976839211114,-4.615570795439887e-10,5.3304847850651506e-08,-4.989105559200794e-08,0.9999999999999973,0.0;0.0;0.0;0.0;0.0;0.0;0.0;0.0;0.0,7.621289842063561e-05;0.0;0.0;0.0;7.621289842063561e-05;0.0;0.0;0.0;7.621289842063561e-05,3.999999975690116e-08;0.0;0.0;0.0;3.999999975690116e-08;0.0;0.0;0.0;3.999999975690116e-08
13,100000000,13.1,imu_link,0.0003055922726612106,-0.01219180776048019,0.0066947125009503925,0.0002669885604366498,0.00045235795882625745,9.799978888244883,-4.6155707939991286e-10,5.3304847850697934e-08,-4.989105559201606e-08,0.9999999999999973,0.0;0.0;0.0;0.0;0.0;0.0;0.0;0.0;0.0,7.621289842063561e-05;0.0;0.0;0.0;7.621289842063561e-05;0.0;0.0;0.0;7.621289842063561e-05,3.999999975690116e-08;0.0;0.0;0.0;3.999999975690116e-08;0.0;0.0;0.0;3.999999975690116e-08
13,120000000,13.12,imu_link,-0.00423196545950392,-0.002120846355043309,0.004998769987490476,1.4643232136262756e-05,8.346647214325582e-05,9.799839400485999,-4.615570793728596e-10,5.330484785032658e-08,-4.9891055592024647e-08,0.9999999999999973,0.0;0.0;0.0;0.0;0.0;0.0;0.0;0.0;0.0,7.621289842063561e-05;0.0;0.0;0.0;7.621289842063561e-05;0.0;0.0;0.0;7.621289842063561e-05,3.999999975690116e-08;0.0;0.0;0.0;3.999999975690116e-08;0.0;0.0;0.0;3.999999975690116e-08
13,140000000,13.14,imu_link,0.016270020110224503,0.010500109382667372,0.003956995434865127,-0.0005263216073360921,-2.9741339046081546e-05,9.799778244286781,-4.615570795795376e-10,5.3304847850452314e-08,-4.9891055592034725e-08,0.9999999999999973,0.0;0.0;0.0;0.0;0.0;0.0;0.0;0.0;0.0,7.621289842063561e-05;0.0;0.0;0.0;7.621289842063561e-05;0.0;0.0;0.0;7.621289842063561e-05,3.999999975690116e-08;0.0;0.0;0.0;3.999999975690116e-08;0.0;0.0;0.0;3.999999975690116e-08
13,160000000,13.16,imu_link,-0.0021812775098624124,-0.013319483394977212,0.014634342741076839,-0.0004704647245068831,0.0004338227426097042,9.799726091418464,-4.615570796459599e-10,5.3304847850725575e-08,-4.9891055592045683e-08,0.9999999999999973,0.0;0.0;0.0;0.0;0.0;0.0;0.0;0.0;0.0,7.621289842063561e-05;0.0;0.0;0.0;7.621289842063561e-05;0.0;0.0;0.0;7.621289842063561e-05,3.999999975690116e-08;0.0;0.0;0.0;3.999999975690116e-08;0.0;0.0;0.0;3.999999975690116e-08
13,180000000,13.18,imu_link,0.00529126839995189,0.004715474829729369,0.0022566806715988434,0.0002003264415930397,-1.5047320278453573e-05,9.799595205352155,-4.615570793781154e-10,5.3304847850310224e-08,-4.989105559205474e-08,0.9999999999999973,0.0;0.0;0.0;0.0;0.0;0.0;0.0;0.0;0.0,7.621289842063561e-05;0.0;0.0;0.0;7.621289842063561e-05;0.0;0.0;0.0;7.621289842063561e-05,3.999999975690116e-08;0.0;0.0;0.0;3.999999975690116e-08;0.0;0.0;0.0;3.999999975690116e-08
13,200000000,13.2,imu_link,-0.007604984613503896,0.013582651465040703,0.010046673054171947,-4.896502655681672e-05,0.0004779426321397534,9.799922312923748,-4.6155707945161754e-10,5.330484785045916e-08,-4.9891055592062776e-08,0.9999999999999973,0.0;0.0;0.0;0.0;0.0;0.0;0.0;0.0;0.0,7.621289842063561e-05;0.0;0.0;0.0;7.621289842063561e-05;0.0;0.0;0.0;7.621289842063561e-05,3.999999975690116e-08;0.0;0.0;0.0;3.999999975690116e-08;0.0;0.0;0.0;3.999999975690116e-08
13,220000000,13.22,imu_link,-0.00577554907079575,0.0008376545282525534,0.010121372739552477,-0.0004054271665363881,0.00031678306746728323,9.80001365866849,-4.6155707936967315e-10,5.3304847850626406e-08,-4.9891055592072014e-08,0.9999999999999973,0.0;0.0;0.0;0.0;0.0;0.0;0.0;0.0;0.0,7.621289842063561e-05;0.0;0.0;0.0;7.621289842063561e-05;0.0;0.0;0.0;7.621289842063561e-05,3.999999975690116e-08;0.0;0.0;0.0;3.999999975690116e-08;0.0;0.0;0.0;3.999999975690116e-08
13,240000000,13.24,imu_link,0.0073248381365285855,-0.0025888294132965835,-0.002709627597831548,-0.00010189964550815479,0.00025724586671828625,9.80021597560562,-4.615570795901974e-10,5.330484785065912e-08,-4.9891055592083284e-08,0.9999999999999973,0.0;0.0;0.0;0.0;0.0;0.0;0.0;0.0;0.0,7.621289842063561e-05;0.0;0.0;0.0;7.621289842063561e-05;0.0;0.0;0.0;7.621289842063561e-05,3.999999975690116e-08;0.0;0.0;0.0;3.999999975690116e-08;0.0;0.0;0.0;3.999999975690116e-08
13,260000000,13.26,imu_link,0.00021028987161291848,0.00454803713323496,-0.0012218198264931242,-3.779527178917496e-05,0.00031003249307776413,9.799788676759691,-4.615570794146582e-10,5.3304847850300067e-08,-4.989105559209297e-08,0.9999999999999973,0.0;0.0;0.0;0.0;0.0;0.0;0.0;0.0;0.0,7.621289842063561e-05;0.0;0.0;0.0;7.621289842063561e-05;0.0;0.0;0.0;7.621289842063561e-05,3.999999975690116e-08;0.0;0.0;0.0;3.999999975690116e-08;0.0;0.0;0.0;3.999999975690116e-08
13,280000000,13.28,imu_link,0.013029955388294484,0.0134145166807356,0.0016564691701824426,-5.140054790107708e-05,0.0002630666355676232,9.799926214565719,-4.615570794597018e-10,5.330484785063178e-08,-4.989105559210164e-08,0.9999999999999973,0.0;0.0;0.0;0.0;0.0;0.0;0.0;0.0;0.0,7.621289842063561e-05;0.0;0.0;0.0;7.621289842063561e-05;0.0;0.0;0.0;7.621289842063561e-05,3.999999975690116e-08;0.0;0.0;0.0;3.999999975690116e-08;0.0;0.0;0.0;3.999999975690116e-08
13,300000000,13.3,imu_link,0.010488416997849278,0.01240974564976904,-0.010893201555270864,-0.00020257412556830496,0.0001881409712865566,9.799724900234308,-4.615570795253216e-10,5.3304847850792444e-08,-4.989105559211166e-08,0.9999999999999973,0.0;0.0;0.0;0.0;0.0;0.0;0.0;0.0;0.0,7.621289842063561e-05;0.0;0.0;0.0;7.621289842063561e-05;0.0;0.0;0.0;7.621289842063561e-05,3.999999975690116e-08;0.0;0.0;0.0;3.999999975690116e-08;0.0;0.0;0.0;3.999999975690116e-08
13,320000000,13.32,imu_link,0.0004421548030838429,-0.004545638014718017,-0.004936909395708505,0.00032894472507005013,0.00014130238125448607,9.800041015023876,-4.615570795926299e-10,5.3304847850366876e-08,-4.9891055592121016e-08,0.9999999999999973,0.0;0.0;0.0;0.0;0.0;0.0;0.0;0.0;0.0,7.621289842063561e-05;0.0;0.0;0.0;7.621289842063561e-05;0.0;0.0;0.0;7.621289842063561e-05,3.999999975690116e-08;0.0;0.0;0.0;3.999999975690116e-08;0.0;0.0;0.0;3.999999975690116e-08
13,340000000,13.34,imu_link,0.00803356982336729,0.0023999620485302786,-0.00031958663467501183,-9.473937785572401e-05,0.00036561093068169837,9.799897625848436,-4.6155707956290973e-10,5.330484785046138e-08,-4.989105559213114e-08,0.9999999999999973,0.0;0.0;0.0;0.0;0.0;0.0;0.0;0.0;0.0,7.621289842063561e-05;0.0;0.0;0.0;7.621289842063561e-05;0.0;0.0;0.0;7.621289842063561e-05,3.999999975690116e-08;0.0;0.0;0.0;3.999999975690116e-08;0.0;0.0;0.0;3.999999975690116e-08
13,360000000,13.36,imu_link,-0.020044461363964327,-0.009705817398284806,0.00920727474469717,1.3710341832644658e-06,-0.00025783632437509374,9.800080202846445,-4.6155707947862633e-10,5.330484785074677e-08,-4.9891055592140306e-08,0.9999999999999973,0.0;0.0;0.0;0.0;0.0;0.0;0.0;0.0;0.0,7.621289842063561e-05;0.0;0.0;0.0;7.621289842063561e-05;0.0;0.0;0.0;7.621289842063561e-05,3.999999975690116e-08;0.0;0.0;0.0;3.999999975690116e-08;0.0;0.0;0.0;3.999999975690116e-08
13,380000000,13.38,imu_link,0.011663350607000644,0.005969611657476089,-0.006738605557811122,-0.000203734302135219,0.00024019906117190052,9.79998928603534,-4.6155707957030917e-10,5.330484785037937e-08,-4.98910555921503e-08,0.9999999999999973,0.0;0.0;0.0;0.0;0.0;0.0;0.0;0.0;0.0,7.621289842063561e-05;0.0;0.0;0.0;7.621289842063561e-05;0.0;0.0;0.0;7.621289842063561e-05,3.999999975690116e-08;0.0;0.0;0.0;3.999999975690116e-08;0.0;0.0;0.0;3.999999975690116e-08
13,400000000,13.4,imu_link,0.0023906341151437127,0.008899268173881406,0.015407595411402531,-0.0003210926602576608,0.0001412208463004991,9.799886988779871,-4.6155707940909063e-10,5.330484785047996e-08,-4.989105559216103e-08,0.9999999999999973,0.0;0.0;0.0;0.0;0.0;0.0;0.0;0.0;0.0,7.621289842063561e-05;0.0;0.0;0.0;7.621289842063561e-05;0.0;0.0;0.0;7.621289842063561e-05,3.999999975690116e-08;0.0;0.0;0.0;3.999999975690116e-08;0.0;0.0;0.0;3.999999975690116e-08
13,420000000,13.42,imu_link,0.0051017809227846605,-0.008838968569681355,0.00557028444227091,-0.00035865651619656363,0.0001441999969109571,9.800213258996335,-4.615570793911256e-10,5.330484785057503e-08,-4.9891055592171494e-08,0.9999999999999973,0.0;0.0;0.0;0.0;0.0;0.0;0.0;0.0;0.0,7.621289842063561e-05;0.0;0.0;0.0;7.621289842063561e-05;0.0;0.0;0.0;7.621289842063561e-05,3.999999975690116e-08;0.0;0.0;0.0;3.999999975690116e-08;0.0;0.0;0.0;3.999999975690116e-08
13,440000000,13.44,imu_link,-0.004224823967953853,-0.0040611760694533984,0.010260471748912623,-3.1555234733254974e-06,-1.816894026600864e-05,9.79969934567203,-4.6155707944020684e-10,5.330484785079377e-08,-4.9891055592180434e-08,0.9999999999999973,0.0;0.0;0.0;0.0;0.0;0.0;0.0;0.0;0.0,7.621289842063561e-05;0.0;0.0;0.0;7.621289842063561e-05;0.0;0.0;0.0;7.621289842063561e-05,3.999999975690116e-08;0.0;0.0;0.0;3.999999975690116e-08;0.0;0.0;0.0;3.999999975690116e-08
13,460000000,13.46,imu_link,0.0009513900039442335,-0.003297228316878575,-0.0037247839222794075,-0.00021790537349647163,0.0004070455128479224,9.80005025237319,-4.615570795097563e-10,5.330484785048849e-08,-4.9891055592190466e-08,0.9999999999999973,0.0;0.0;0.0;0.0;0.0;0.0;0.0;0.0;0.0,7.621289842063561e-05;0.0;0.0;0.0;7.621289842063561e-05;0.0;0.0;0.0;7.621289842063561e-05,3.999999975690116e-08;0.0;0.0;0.0;3.999999975690116e-08;0.0;0.0;0.0;3.999999975690116e-08
13,480000000,13.48,imu_link,-0.011470831997294364,0.0010523229325958103,-0.007316775486785408,-0.00029153495329187624,4.0479258006892154e-05,9.800000100221983,-4.615570796094363e-10,5.3304847850581434e-08,-4.9891055592199195e-08,0.9999999999999973,0.0;0.0;0.0;0.0;0.0;0.0;0.0;0.0;0.0,7.621289842063561e-05;0.0;0.0;0.0;7.621289842063561e-05;0.0;0.0;0.0;7.621289842063561e-05,3.999999975690116e-08;0.0;0.0;0.0;3.999999975690116e-08;0.0;0.0;0.0;3.999999975690116e-08
13,500000000,13.5,imu_link,-0.0061885209060261615,0.015144306823073392,0.0011650355555925921,-9.220828291114074e-05,0.00014875335422212348,9.79986879535167,-4.615570795273551e-10,5.330484785085336e-08,-4.9891055592208565e-08,0.9999999999999973,0.0;0.0;0.0;0.0;0.0;0.0;0.0;0.0;0.0,7.621289842063561e-05;0.0;0.0;0.0;7.621289842063561e-05;0.0;0.0;0.0;7.621289842063561e-05,3.999999975690116e-08;0.0;0.0;0.0;3.999999975690116e-08;0.0;0.0;0.0;3.999999975690116e-08
13,520000000,13.52,imu_link,0.012438272965746643,0.0005154487173193112,0.011943811179576755,-0.00017635081574485866,-0.0001699755961737145,9.799916675262994,-4.615570795240155e-10,5.330484785029402e-08,-4.989105559221964e-08,0.9999999999999973,0.0;0.0;0.0;0.0;0.0;0.0;0.0;0.0;0.0,7.621289842063561e-05;0.0;0.0;0.0;7.621289842063561e-05;0.0;0.0;0.0;7.621289842063561e-05,3.999999975690116e-08;0.0;0.0;0.0;3.999999975690116e-08;0.0;0.0;0.0;3.999999975690116e-08
13,540000000,13.54,imu_link,0.008284801633736436,-0.010509108583183787,0.0037085420586346236,0.00017940377560263986,0.00018678026648345016,9.799886100027706,-4.615570794547781e-10,5.330484785057675e-08,-4.989105559223039e-08,0.9999999999999973,0.0;0.0;0.0;0.0;0.0;0.0;0.0;0.0;0.0,7.621289842063561e-05;0.0;0.0;0.0;7.621289842063561e-05;0.0;0.0;0.0;7.621289842063561e-05,3.999999975690116e-08;0.0;0.0;0.0;3.999999975690116e-08;0.0;0.0;0.0;3.999999975690116e-08
13,560000000,13.56,imu_link,-0.010144735678298905,-0.010849786268396599,0.018709469978349165,6.958437449629993e-05,5.326702364157103e-05,9.800127820995229,-4.6155707968000174e-10,5.330484785060106e-08,-4.989105559224034e-08,0.9999999999999973,0.0;0.0;0.0;0.0;0.0;0.0;0.0;0.0;0.0,7.621289842063561e-05;0.0;0.0;0.0;7.621289842063561e-05;0.0;0.0;0.0;7.621289842063561e-05,3.999999975690116e-08;0.0;0.0;0.0;3.999999975690116e-08;0.0;0.0;0.0;3.999999975690116e-08
13,580000000,13.58,imu_link,-0.005345478211464494,3.114157381837266e-05,-0.00786166470509568,-0.0003624842879028179,0.0003311735724858098,9.79978987653988,-4.615570794764691e-10,5.3304847850890243e-08,-4.989105559224972e-08,0.9999999999999973,0.0;0.0;0.0;0.0;0.0;0.0;0.0;0.0;0.0,7.621289842063561e-05;0.0;0.0;0.0;7.621289842063561e-05;0.0;0.0;0.0;7.621289842063561e-05,3.999999975690116e-08;0.0;0.0;0.0;3.999999975690116e-08;0.0;0.0;0.0;3.999999975690116e-08
13,600000000,13.6,imu_link,0.01577348475055326,-0.00996525664579766,0.002172287481728612,-0.0002797498423534625,0.0002472339249929955,9.800284123883781,-4.615570794541159e-10,5.3304847850509926e-08,-4.989105559226088e-08,0.9999999999999973,0.0;0.0;0.0;0.0;0.0;0.0;0.0;0.0;0.0,7.621289842063561e-05;0.0;0.0;0.0;7.621289842063561e-05;0.0;0.0;0.0;7.621289842063561e-05,3.999999975690116e-08;0.0;0.0;0.0;3.999999975690116e-08;0.0;0.0;0.0;3.999999975690116e-08
13,620000000,13.62,imu_link,0.0008201744505714362,0.004375952334749916,-0.007960970230575199,0.00017490631622867265,0.0002579043311124623,9.799813629126282,-4.615570795505263e-10,5.330484785047814e-08,-4.989105559227196e-08,0.9999999999999973,0.0;0.0;0.0;0.0;0.0;0.0;0.0;0.0;0.0,7.621289842063561e-05;0.0;0.0;0.0;7.621289842063561e-05;0.0;0.0;0.0;7.621289842063561e-05,3.999999975690116e-08;0.0;0.0;0.0;3.999999975690116e-08;0.0;0.0;0.0;3.999999975690116e-08
13,640000000,13.64,imu_link,0.0013110223847905237,-0.006430332677948961,-0.00011121238806367751,-0.0002489058322577959,4.604512062527594e-05,9.79979041486504,-4.6155707933583893e-10,5.330484785077277e-08,-4.98910555922806e-08,0.9999999999999973,0.0;0.0;0.0;0.0;0.0;0.0;0.0;0.0;0.0,7.621289842063561e-05;0.0;0.0;0.0;7.621289842063561e-05;0.0;0.0;0.0;7.621289842063561e-05,3.999999975690116e-08;0.0;0.0;0.0;3.999999975690116e-08;0.0;0.0;0.0;3.999999975690116e-08
13,660000000,13.66,imu_link,-0.0015024355154602323,0.0017331632359808473,0.0035400404622759874,-8.946291714010952e-05,0.00023254212488541285,9.799841215714165,-4.6155707942712317e-10,5.330484785045495e-08,-4.989105559229107e-08,0.9999999999999973,0.0;0.0;0.0;0.0;0.0;0.0;0.0;0.0;0.0,7.621289842063561e-05;0.0;0.0;0.0;7.621289842063561e-05;0.0;0.0;0.0;7.621289842063561e-05,3.999999975690116e-08;0.0;0.0;0.0;3.999999975690116e-08;0.0;0.0;0.0;3.999999975690116e-08
13,680000000,13.68,imu_link,-0.0011936604277513294,-0.014240518340577234,0.0016745508643107134,-3.94365338484861e-05,7.017717530157766e-05,9.799661917197012,-4.61557079390702e-10,5.330484785054768e-08,-4.9891055592305114e-08,0.9999999999999973,0.0;0.0;0.0;0.0;0.0;0.0;0.0;0.0;0.0,7.621289842063561e-05;0.0;0.0;0.0;7.621289842063561e-05;0.0;0.0;0.0;7.621289842063561e-05,3.999999975690116e-08;0.0;0.0;0.0;3.999999975690116e-08;0.0;0.0;0.0;3.999999975690116e-08
13,700000000,13.7,imu_link,-0.001786410966354178,-0.0046706963790453535,0.005813800570656494,5.9053872132740584e-05,1.4064741663185408e-05,9.799705593287438,-4.615570797090326e-10,5.3304847850868624e-08,-4.989105559231751e-08,0.9999999999999973,0.0;0.0;0.0;0.0;0.0;0.0;0.0;0.0;0.0,7.621289842063561e-05;0.0;0.0;0.0;7.621289842063561e-05;0.0;0.0;0.0;7.621289842063561e-05,3.999999975690116e-08;0.0;0.0;0.0;3.999999975690116e-08;0.0;0.0;0.0;3.999999975690116e-08
13,720000000,13.72,imu_link,0.0006466411827774293,-0.01985153597998353,0.004713335776302994,-8.032627878311667e-05,-0.00016942101978987206,9.800167218881993,-4.615570794666714e-10,5.330484785025962e-08,-4.989105559232871e-08,0.9999999999999973,0.0;0.0;0.0;0.0;0.0;0.0;0.0;0.0;0.0,7.621289842063561e-05;0.0;0.0;0.0;7.621289842063561e-05;0.0;0.0;0.0;7.621289842063561e-05,3.999999975690116e-08;0.0;0.0;0.0;3.999999975690116e-08;0.0;0.0;0.0;3.999999975690116e-08
13,740000000,13.74,imu_link,-0.0009408113886936599,0.011635792901812197,-0.002989963080032455,-0.000168579530124327,0.0004898024599853065,9.800016861570354,-4.6155707939558644e-10,5.330484785054667e-08,-4.989105559233951e-08,0.9999999999999973,0.0;0.0;0.0;0.0;0.0;0.0;0.0;0.0;0.0,7.621289842063561e-05;0.0;0.0;0.0;7.621289842063561e-05;0.0;0.0;0.0;7.621289842063561e-05,3.999999975690116e-08;0.0;0.0;0.0;3.999999975690116e-08;0.0;0.0;0.0;3.999999975690116e-08
13,760000000,13.76,imu_link,0.019389508781204892,0.005908712531821766,-0.011017833903545753,-0.00023639840909504752,-1.9271428608345876e-05,9.800276893909542,-4.615570794658652e-10,5.330484785069846e-08,-4.989105559235145e-08,0.9999999999999973,0.0;0.0;0.0;0.0;0.0;0.0;0.0;0.0;0.0,7.621289842063561e-05;0.0;0.0;0.0;7.621289842063561e-05;0.0;0.0;0.0;7.621289842063561e-05,3.999999975690116e-08;0.0;0.0;0.0;3.999999975690116e-08;0.0;0.0;0.0;3.999999975690116e-08
13,780000000,13.78,imu_link,-0.005104719762457329,-0.007159668454055742,0.004877414268647918,-7.071818465640548e-05,4.9514300695172545e-05,9.799523460247533,-4.6155707943038867e-10,5.3304847850333643e-08,-4.989105559236459e-08,0.9999999999999973,0.0;0.0;0.0;0.0;0.0;0.0;0.0;0.0;0.0,7.621289842063561e-05;0.0;0.0;0.0;7.621289842063561e-05;0.0;0.0;0.0;7.621289842063561e-05,3.999999975690116e-08;0.0;0.0;0.0;3.999999975690116e-08;0.0;0.0;0.0;3.999999975690116e-08
13,800000000,13.8,imu_link,0.00623116231676711,-0.0017053785012336737,0.0016965561387449726,-0.00023282709485412384,3.335006381745727e-05,9.79976560030716,-4.6155707939687524e-10,5.330484785042579e-08,-4.9891055592377085e-08,0.9999999999999973,0.0;0.0;0.0;0.0;0.0;0.0;0.0;0.0;0.0,7.621289842063561e-05;0.0;0.0;0.0;7.621289842063561e-05;0.0;0.0;0.0;7.621289842063561e-05,3.999999975690116e-08;0.0;0.0;0.0;3.999999975690116e-08;0.0;0.0;0.0;3.999999975690116e-08
13,820000000,13.82,imu_link,-0.014719139046356173,0.003157075685409339,0.0041248461970387834,0.00031882369787454736,0.0001639773927620062,9.799683123332468,-4.6155707956950184e-10,5.330484785075197e-08,-4.989105559239087e-08,0.9999999999999973,0.0;0.0;0.0;0.0;0.0;0.0;0.0;0.0;0.0,7.621289842063561e-05;0.0;0.0;0.0;7.621289842063561e-05;0.0;0.0;0.0;7.621289842063561e-05,3.999999975690116e-08;0.0;0.0;0.0;3.999999975690116e-08;0.0;0.0;0.0;3.999999975690116e-08
13,840000000,13.84,imu_link,-0.012391699371993657,-0.007559236306040754,-0.003087851254938031,-7.019389703443038e-05,9.257972888996139e-05,9.800141613416665,-4.61557079523382e-10,5.330484785083865e-08,-4.989105559240198e-08,0.9999999999999973,0.0;0.0;0.0;0.0;0.0;0.0;0.0;0.0;0.0,7.621289842063561e-05;0.0;0.0;0.0;7.621289842063561e-05;0.0;0.0;0.0;7.621289842063561e-05,3.999999975690116e-08;0.0;0.0;0.0;3.999999975690116e-08;0.0;0.0;0.0;3.999999975690116e-08
13,860000000,13.86,imu_link,0.0017456156333014255,0.0028922858833564107,-0.006846334686691982,-0.00020718613130994598,0.0002491325215794156,9.800151687079927,-4.615570796369328e-10,5.3304847850465946e-08,-4.989105559241308e-08,0.9999999999999973,0.0;0.0;0.0;0.0;0.0;0.0;0.0;0.0;0.0,7.621289842063561e-05;0.0;0.0;0.0;7.621289842063561e-05;0.0;0.0;0.0;7.621289842063561e-05,3.999999975690116e-08;0.0;0.0;0.0;3.999999975690116e-08;0.0;0.0;0.0;3.999999975690116e-08
13,880000000,13.88,imu_link,0.0005125117037429875,0.002163189492935786,-0.000543849984906549,1.4969840006042966e-05,0.00026628391575798764,9.800111721319341,-4.615570795921571e-10,5.3304847850563004e-08,-4.989105559242509e-08,0.9999999999999973,0.0;0.0;0.0;0.0;0.0;0.0;0.0;0.0;0.0,7.621289842063561e-05;0.0;0.0;0.0;7.621289842063561e-05;0.0;0.0;0.0;7.621289842063561e-05,3.999999975690116e-08;0.0;0.0;0.0;3.999999975690116e-08;0.0;0.0;0.0;3.999999975690116e-08
13,900000000,13.9,imu_link,0.0023571706413179506,0.004733348383185089,-0.004579142877898813,5.282711048545228e-05,7.725934693326783e-05,9.799661165975664,-4.615570795044226e-10,5.330484785083967e-08,-4.989105559244004e-08,0.9999999999999973,0.0;0.0;0.0;0.0;0.0;0.0;0.0;0.0;0.0,7.621289842063561e-05;0.0;0.0;0.0;7.621289842063561e-05;0.0;0.0;0.0;7.621289842063561e-05,3.999999975690116e-08;0.0;0.0;0.0;3.999999975690116e-08;0.0;0.0;0.0;3.999999975690116e-08
13,920000000,13.92,imu_link,0.01577208272981711,-0.022664591814838313,-6.83816297692908e-05,-0.0002606899828847992,3.089708562991242e-05,9.799878178167324,-4.6155707950347954e-10,5.330484785027465e-08,-4.989105559245403e-08,0.9999999999999973,0.0;0.0;0.0;0.0;0.0;0.0;0.0;0.0;0.0,7.621289842063561e-05;0.0;0.0;0.0;7.621289842063561e-05;0.0;0.0;0.0;7.621289842063561e-05,3.999999975690116e-08;0.0;0.0;0.0;3.999999975690116e-08;0.0;0.0;0.0;3.999999975690116e-08
13,940000000,13.94,imu_link,-0.0025320857367522615,0.009508837701546546,-0.006219244196764854,-0.0003204010316202841,0.00015211050005510752,9.799804062201185,-4.615570796693647e-10,5.330484785059705e-08,-4.9891055592469054e-08,0.9999999999999973,0.0;0.0;0.0;0.0;0.0;0.0;0.0;0.0;0.0,7.621289842063561e-05;0.0;0.0;0.0;7.621289842063561e-05;0.0;0.0;0.0;7.621289842063561e-05,3.999999975690116e-08;0.0;0.0;0.0;3.999999975690116e-08;0.0;0.0;0.0;3.999999975690116e-08
13,960000000,13.96,imu_link,-0.003852918094408898,0.0015193626068525502,0.009697330310078295,-0.0004475479772679737,-0.0002732793062323165,9.799546283143064,-4.615570793880301e-10,5.330484785063809e-08,-4.989105559248275e-08,0.9999999999999973,0.0;0.0;0.0;0.0;0.0;0.0;0.0;0.0;0.0,7.621289842063561e-05;0.0;0.0;0.0;7.621289842063561e-05;0.0;0.0;0.0;7.621289842063561e-05,3.999999975690116e-08;0.0;0.0;0.0;3.999999975690116e-08;0.0;0.0;0.0;3.999999975690116e-08
13,980000000,13.98,imu_link,0.004485712805778568,-0.009019177000334694,0.0002188468137214331,-0.00024479834944753326,0.00025556506368293016,9.799773721712203,-4.615570795917371e-10,5.3304847850324683e-08,-4.9891055592494776e-08,0.9999999999999973,0.0;0.0;0.0;0.0;0.0;0.0;0.0;0.0;0.0,7.621289842063561e-05;0.0;0.0;0.0;7.621289842063561e-05;0.0;0.0;0.0;7.621289842063561e-05,3.999999975690116e-08;0.0;0.0;0.0;3.999999975690116e-08;0.0;0.0;0.0;3.999999975690116e-08
14,0,14.0,imu_link,0.008869335835521382,0.0028728071555090616,0.017819370153885218,0.0001172953335894272,-0.00012591813326748725,9.79993182189358,-4.6155707954909007e-10,5.330484785042882e-08,-4.989105559250814e-08,0.9999999999999973,0.0;0.0;0.0;0.0;0.0;0.0;0.0;0.0;0.0,7.621289842063561e-05;0.0;0.0;0.0;7.621289842063561e-05;0.0;0.0;0.0;7.621289842063561e-05,3.999999975690116e-08;0.0;0.0;0.0;3.999999975690116e-08;0.0;0.0;0.0;3.999999975690116e-08
14,20000000,14.02,imu_link,0.008322447793481673,-0.010972980028238634,-0.009870952430296004,-0.00010988515027519464,-5.928005913527548e-05,9.799874495616004,-4.615570797130887e-10,5.330484785076221e-08,-4.9891055592520604e-08,0.9999999999999973,0.0;0.0;0.0;0.0;0.0;0.0;0.0;0.0;0.0,7.621289842063561e-05;0.0;0.0;0.0;7.621289842063561e-05;0.0;0.0;0.0;7.621289842063561e-05,3.999999975690116e-08;0.0;0.0;0.0;3.999999975690116e-08;0.0;0.0;0.0;3.999999975690116e-08
14,40000000,14.04,imu_link,-0.004834713760399797,-0.00367901575709088,-0.010051517423556332,-0.0003000931707186444,-0.00023178838532787537,9.799729357306122,-4.615570794108695e-10,5.330484785081418e-08,-4.989105559253202e-08,0.9999999999999973,0.0;0.0;0.0;0.0;0.0;0.0;0.0;0.0;0.0,7.621289842063561e-05;0.0;0.0;0.0;7.621289842063561e-05;0.0;0.0;0.0;7.621289842063561e-05,3.999999975690116e-08;0.0;0.0;0.0;3.999999975690116e-08;0.0;0.0;0.0;3.999999975690116e-08
14,60000000,14.06,imu_link,-0.007476774051991854,-0.009163486125387671,0.005147290024873231,-0.0002321145243760709,1.1945904834510468e-05,9.800086329251737,-4.615570796096031e-10,5.330484785049807e-08,-4.9891055592543626e-08,0.9999999999999973,0.0;0.0;0.0;0.0;0.0;0.0;0.0;0.0;0.0,7.621289842063561e-05;0.0;0.0;0.0;7.621289842063561e-05;0.0;0.0;0.0;7.621289842063561e-05,3.999999975690116e-08;0.0;0.0;0.0;3.999999975690116e-08;0.0;0.0;0.0;3.999999975690116e-08
14,80000000,14.08,imu_link,0.002295505643550861,0.014776470778601943,-0.010117191455616691,0.000136685151591607,-0.00015704469208242122,9.800014501572448,-4.6155707944200224e-10,5.3304847850611186e-08,-4.989105559255589e-08,0.9999999999999973,0.0;0.0;0.0;0.0;0.0;0.0;0.0;0.0;0.0,7.621289842063561e-05;0.0;0.0;0.0;7.621289842063561e-05;0.0;0.0;0.0;7.621289842063561e-05,3.999999975690116e-08;0.0;0.0;0.0;3.999999975690116e-08;0.0;0.0;0.0;3.999999975690116e-08
14,100000000,14.1,imu_link,0.002284337659381114,-0.007069319007678594,0.011299378267104495,-0.0005604230884892175,0.00034194403928093664,9.799800426207254,-4.615570794718978e-10,5.330484785083519e-08,-4.989105559256958e-08,0.9999999999999973,0.0;0.0;0.0;0.0;0.0;0.0;0.0;0.0;0.0,7.621289842063561e-05;0.0;0.0;0.0;7.621289842063561e-05;0.0;0.0;0.0;7.621289842063561e-05,3.999999975690116e-08;0.0;0.0;0.0;3.999999975690116e-08;0.0;0.0;0.0;3.999999975690116e-08
14,120000000,14.12,imu_link,-0.005384000211618642,-0.006833927907884189,0.004100571641531638,-0.00030738603594489885,0.0003318193617692979,9.79986985678959,-4.6155707948943076e-10,5.3304847850289035e-08,-4.989105559258255e-08,0.9999999999999973,0.0;0.0;0.0;0.0;0.0;0.0;0.0;0.0;0.0,7.621289842063561e-05;0.0;0.0;0.0;7.621289842063561e-05;0.0;0.0;0.0;7.621289842063561e-05,3.999999975690116e-08;0.0;0.0;0.0;3.999999975690116e-08;0.0;0.0;0.0;3.999999975690116e-08
14,140000000,14.14,imu_link,-0.008323987941953359,-0.0044570947107458545,0.011629462603794206,-0.0007439067858608381,0.0002013755984079379,9.799814172605078,-4.615570794108125e-10,5.3304847850581057e-08,-4.989105559259396e-08,0.9999999999999973,0.0;0.0;0.0;0.0;0.0;0.0;0.0;0.0;0.0,7.621289842063561e-05;0.0;0.0;0.0;7.621289842063561e-05;0.0;0.0;0.0;7.621289842063561e-05,3.999999975690116e-08;0.0;0.0;0.0;3.999999975690116e-08;0.0;0.0;0.0;3.999999975690116e-08
14,160000000,14.16,imu_link,0.0019589848272770554,0.007038728244459909,-0.013088365456707173,0.00010250517504892468,0.0003188393362591704,9.799546893460773,-4.6155707936985084e-10,5.330484785068581e-08,-4.989105559260518e-08,0.9999999999999973,0.0;0.0;0.0;0.0;0.0;0.0;0.0;0.0;0.0,7.621289842063561e-05;0.0;0.0;0.0;7.621289842063561e-05;0.0;0.0;0.0;7.621289842063561e-05,3.999999975690116e-08;0.0;0.0;0.0;3.999999975690116e-08;0.0;0.0;0.0;3.999999975690116e-08
14,180000000,14.18,imu_link,-0.003639224796642346,-0.0020820941403517433,0.010660502567449662,2.8234195201591586e-05,0.00011022884725598605,9.799931200180595,-4.615570795726532e-10,5.3304847850377166e-08,-4.989105559261689e-08,0.9999999999999973,0.0;0.0;0.0;0.0;0.0;0.0;0.0;0.0;0.0,7.621289842063561e-05;0.0;0.0;0.0;7.621289842063561e-05;0.0;0.0;0.0;7.621289842063561e-05,3.999999975690116e-08;0.0;0.0;0.0;3.999999975690116e-08;0.0;0.0;0.0;3.999999975690116e-08
14,200000000,14.2,imu_link,-0.008133939116869712,0.008987484247747162,0.007763202218956356,-0.00026592184066778865,-0.00015478311946425454,9.799896316185949,-4.6155707954985904e-10,5.3304847850487115e-08,-4.9891055592628594e-08,0.9999999999999973,0.0;0.0;0.0;0.0;0.0;0.0;0.0;0.0;0.0,7.621289842063561e-05;0.0;0.0;0.0;7.621289842063561e-05;0.0;0.0;0.0;7.621289842063561e-05,3.999999975690116e-08;0.0;0.0;0.0;3.999999975690116e-08;0.0;0.0;0.0;3.999999975690116e-08
14,220000000,14.22,imu_link,0.0076013632248169765,-0.01805794644800304,0.008718886600262729,-3.6471233984771076e-05,0.00014672115707675538,9.799973609275243,-4.6155707933749076e-10,5.3304847850784914e-08,-4.9891055592641174e-08,0.9999999999999973,0.0;0.0;0.0;0.0;0.0;0.0;0.0;0.0;0.0,7.621289842063561e-05;0.0;0.0;0.0;7.621289842063561e-05;0.0;0.0;0.0;7.621289842063561e-05,3.999999975690116e-08;0.0;0.0;0.0;3.999999975690116e-08;0.0;0.0;0.0;3.999999975690116e-08
