time_sec,time_nsec,timestamp,frame_id,angular_vel_x,angular_vel_y,angular_vel_z,linear_acc_x,linear_acc_y,linear_acc_z,orient_x,orient_y,orient_z,orient_w,orientation_covariance,angular_velocity_covariance,linear_acceleration_covariance
20,160000000,20.16,imu_link,-0.007604246482609092,0.012335915283229715,0.0023279425298673934,-0.00019698044752655377,-3.0778176787798656e-05,9.799843235831029,-4.615570795930837e-10,5.330484785059712e-08,-4.989105559834614e-08,0.9999999999999973,0.0;0.0;0.0;0.0;0.0;0.0;0.0;0.0;0.0,7.621289842063561e-05;0.0;0.0;0.0;7.621289842063561e-05;0.0;0.0;0.0;7.621289842063561e-05,3.999999975690116e-08;0.0;0.0;0.0;3.999999975690116e-08;0.0;0.0;0.0;3.999999975690116e-08
20,180000000,20.18,imu_link,0.007030042768415509,0.017209440827005942,-0.0019484876963437806,-6.268796498585361e-05,6.313398604548733e-06,9.799929429665065,-4.615570793864433e-10,5.330484785073714e-08,-4.9891055598365535e-08,0.9999999999999973,0.0;0.0;0.0;0.0;0.0;0.0;0.0;0.0;0.0,7.621289842063561e-05;0.0;0.0;0.0;7.621289842063561e-05;0.0;0.0;0.0;7.621289842063561e-05,3.999999975690116e-08;0.0;0.0;0.0;3.999999975690116e-08;0.0;0.0;0.0;3.999999975690116e-08
20,200000000,20.2,imu_link,0.003787550052936885,-0.003241959756778098,0.008281381693413666,0.0002745469468267292,-0.0004191590447416649,9.800018508498693,-4.6155707957852173e-10,5.3304847850264465e-08,-4.989105559838617e-08,0.9999999999999973,0.0;0.0;0.0;0.0;0.0;0.0;0.0;0.0;0.0,7.621289842063561e-05;0.0;0.0;0.0;7.621289842063561e-05;0.0;0.0;0.0;7.621289842063561e-05,3.999999975690116e-08;0.0;0.0;0.0;3.999999975690116e-08;0.0;0.0;0.0;3.999999975690116e-08
20,220000000,20.22,imu_link,-0.0005720782781433084,0.0165152135858591,-0.010050651716007847,-8.86598512600409e-05,5.0400940050275705e-05,9.80008630917078,-4.6155707937183013e-10,5.330484785040296e-08,-4.989105559840564e-08,0.9999999999999973,0.0;0.0;0.0;0.0;0.0;0.0;0.0;0.0;0.0,7.621289842063561e-05;0.0;0.0;0.0;7.621289842063561e-05;0.0;0.0;0.0;7.621289842063561e-05,3.999999975690116e-08;0.0;0.0;0.0;3.999999975690116e-08;0.0;0.0;0.0;3.999999975690116e-08
20,240000000,20.24,imu_link,-0.010215247873178448,-0.0054224815861737335,0.007892322342231927,0.00030640949811177893,-6.822903972461e-05,9.80027193257051,-4.6155707963565933e-10,5.330484785075647e-08,-4.989105559842376e-08,0.9999999999999973,0.0;0.0;0.0;0.0;0.0;0.0;0.0;0.0;0.0,7.621289842063561e-05;0.0;0.0;0.0;7.621289842063561e-05;0.0;0.0;0.0;7.621289842063561e-05,3.999999975690116e-08;0.0;0.0;0.0;3.999999975690116e-08;0.0;0.0;0.0;3.999999975690116e-08
20,260000000,20.26,imu_link,0.010575979206087114,-0.0030783360843798313,0.006123711752370769,0.00011715722426473037,-8.245223470322361e-05,9.800208269200404,-4.615570794653365e-10,5.3304847850256954e-08,-4.98910555984429e-08,0.9999999999999973,0.0;0.0;0.0;0.0;0.0;0.0;0.0;0.0;0.0,7.621289842063561e-05;0.0;0.0;0.0;7.621289842063561e-05;0.0;0.0;0.0;7.621289842063561e-05,3.999999975690116e-08;0.0;0.0;0.0;3.999999975690116e-08;0.0;0.0;0.0;3.999999975690116e-08
20,280000000,20.28,imu_link,0.006947457389717168,0.02669651954589076,-0.005703338330158677,0.00020794188095662344,-9.86159907877097e-05,9.800069112834134,-4.6155707961940823e-10,5.3304847850494156e-08,-4.989105559846326e-08,0.9999999999999973,0.0;0.0;0.0;0.0;0.0;0.0;0.0;0.0;0.0,7.621289842063561e-05;0.0;0.0;0.0;7.621289842063561e-05;0.0;0.0;0.0;7.621289842063561e-05,3.999999975690116e-08;0.0;0.0;0.0;3.999999975690116e-08;0.0;0.0;0.0;3.999999975690116e-08
20,300000000,20.3,imu_link,0.0009812913064893714,-0.011400027821680637,-0.01023485657704694,6.19058794931617e-05,5.457407632038435e-05,9.800162706568756,-4.615570793992123e-10,5.330484785063015e-08,-4.989105559848282e-08,0.9999999999999973,0.0;0.0;0.0;0.0;0.0;0.0;0.0;0.0;0.0,7.621289842063561e-05;0.0;0.0;0.0;7.621289842063561e-05;0.0;0.0;0.0;7.621289842063561e-05,3.999999975690116e-08;0.0;0.0;0.0;3.999999975690116e-08;0.0;0.0;0.0;3.999999975690116e-08
20,320000000,20.32,imu_link,0.010386853267052626,0.013721870253547314,-0.012587180173519584,1.8633368998640233e-06,0.00027964567823590637,9.800107310943503,-4.615570794327428e-10,5.3304847850808306e-08,-4.989105559850339e-08,0.9999999999999973,0.0;0.0;0.0;0.0;0.0;0.0;0.0;0.0;0.0,7.621289842063561e-05;0.0;0.0;0.0;7.621289842063561e-05;0.0;0.0;0.0;7.621289842063561e-05,3.999999975690116e-08;0.0;0.0;0.0;3.999999975690116e-08;0.0;0.0;0.0;3.999999975690116e-08
20,340000000,20.34,imu_link,-9.523779417122356e-05,-0.0019830655711289796,0.0006393385875965985,-0.00011271609022532618,-0.00031527546752593914,9.800393847969648,-4.615570794828769e-10,5.3304847850339507e-08,-4.989105559852526e-08,0.9999999999999973,0.0;0.0;0.0;0.0;0.0;0.0;0.0;0.0;0.0,7.621289842063561e-05;0.0;0.0;0.0;7.621289842063561e-05;0.0;0.0;0.0;7.621289842063561e-05,3.999999975690116e-08;0.0;0.0;0.0;3.999999975690116e-08;0.0;0.0;0.0;3.999999975690116e-08
20,360000000,20.36,imu_link,0.0011346052543955596,0.01963248253787555,-0.005007828262810618,0.0003376044589878608,-0.00011611477548942893,9.800147703074245,-4.615570795196079e-10,5.3304847850513764e-08,-4.9891055598545483e-08,0.9999999999999973,0.0;0.0;0.0;0.0;0.0;0.0;0.0;0.0;0.0,7.621289842063561e-05;0.0;0.0;0.0;7.621289842063561e-05;0.0;0.0;0.0;7.621289842063561e-05,3.999999975690116e-08;0.0;0.0;0.0;3.999999975690116e-08;0.0;0.0;0.0;3.999999975690116e-08
20,380000000,20.38,imu_link,-0.01027755668196958,0.0147951851936092,-0.004476698135851317,-8.086732237452185e-05,-7.761714314594802e-06,9.799747969854096,-4.6155707943617263e-10,5.330484785064645e-08,-4.989105559856687e-08,0.9999999999999973,0.0;0.0;0.0;0.0;0.0;0.0;0.0;0.0;0.0,7.621289842063561e-05;0.0;0.0;0.0;7.621289842063561e-05;0.0;0.0;0.0;7.621289842063561e-05,3.999999975690116e-08;0.0;0.0;0.0;3.999999975690116e-08;0.0;0.0;0.0;3.999999975690116e-08
20,400000000,20.4,imu_link,0.012876370330562489,0.002542040776150145,0.003989057902384069,-0.0001562383308120477,-0.00012890116787792142,9.80018706504097,-4.615570797076253e-10,5.33048478508772e-08,-4.9891055598587286e-08,0.9999999999999973,0.0;0.0;0.0;0.0;0.0;0.0;0.0;0.0;0.0,7.621289842063561e-05;0.0;0.0;0.0;7.621289842063561e-05;0.0;0.0;0.0;7.621289842063561e-05,3.999999975690116e-08;0.0;0.0;0.0;3.999999975690116e-08;0.0;0.0;0.0;3.999999975690116e-08
20,420000000,20.42,imu_link,0.005304237782233855,-0.0076863238433879325,-0.00526541129152211,0.00024039369424560804,-0.0003315497033824672,9.800504825695736,-4.6155707936684466e-10,5.3304847850377074e-08,-4.9891055598608025e-08,0.9999999999999973,0.0;0.0;0.0;0.0;0.0;0.0;0.0;0.0;0.0,7.621289842063561e-05;0.0;0.0;0.0;7.621289842063561e-05;0.0;0.0;0.0;7.621289842063561e-05,3.999999975690116e-08;0.0;0.0;0.0;3.999999975690116e-08;0.0;0.0;0.0;3.999999975690116e-08
20,440000000,20.44,imu_link,-0.008221045818576843,0.003888365298542695,-0.0013238952418866661,-5.822668446850353e-05,-8.709910414207115e-05,9.800220754302742,-4.615570796420788e-10,5.330484785073053e-08,-4.9891055598630134e-08,0.9999999999999973,0.0;0.0;0.0;0.0;0.0;0.0;0.0;0.0;0.0,7.621289842063561e-05;0.0;0.0;0.0;7.621289842063561e-05;0.0;0.0;0.0;7.621289842063561e-05,3.999999975690116e-08;0.0;0.0;0.0;3.999999975690116e-08;0.0;0.0;0.0;3.999999975690116e-08
20,460000000,20.46,imu_link,-0.0036026224274913325,-0.0002015033063592934,0.011272776487583217,0.00017852619064194085,-0.00019596090383757996,9.800007335094127,-4.615570794256329e-10,5.330484785074798e-08,-4.989105559865284e-08,0.9999999999999973,0.0;0.0;0.0;0.0;0.0;0.0;0.0;0.0;0.0,7.621289842063561e-05;0.0;0.0;0.0;7.621289842063561e-05;0.0;0.0;0.0;7.621289842063561e-05,3.999999975690116e-08;0.0;0.0;0.0;3.999999975690116e-08;0.0;0.0;0.0;3.999999975690116e-08
20,480000000,20.48,imu_link,0.010496654294217677,0.0014257363911434548,-0.00798422489989504,0.0005358336424158953,-7.89549703262745e-06,9.800384014318448,-4.615570796023117e-10,5.330484785046302e-08,-4.989105559867529e-08,0.9999999999999973,0.0;0.0;0.0;0.0;0.0;0.0;0.0;0.0;0.0,7.621289842063561e-05;0.0;0.0;0.0;7.621289842063561e-05;0.0;0.0;0.0;7.621289842063561e-05,3.999999975690116e-08;0.0;0.0;0.0;3.999999975690116e-08;0.0;0.0;0.0;3.999999975690116e-08
20,500000000,20.5,imu_link,0.007443461168088254,-0.005586105604929608,-0.004364683712186739,5.3500490119378486e-05,-0.00019790154556478893,9.800033166688289,-4.615570795242779e-10,5.330484785046479e-08,-4.989105559869865e-08,0.9999999999999973,0.0;0.0;0.0;0.0;0.0;0.0;0.0;0.0;0.0,7.621289842063561e-05;0.0;0.0;0.0;7.621289842063561e-05;0.0;0.0;0.0;7.621289842063561e-05,3.999999975690116e-08;0.0;0.0;0.0;3.999999975690116e-08;0.0;0.0;0.0;3.999999975690116e-08
20,520000000,20.52,imu_link,-0.0032462011836985774,-9.501534133912619e-05,-0.006194673893647579,8.781097701764833e-05,-1.271592756604855e-05,9.799927717852688,-4.615570794041714e-10,5.330484785078523e-08,-4.989105559872077e-08,0.9999999999999973,0.0;0.0;0.0;0.0;0.0;0.0;0.0;0.0;0.0,7.621289842063561e-05;0.0;0.0;0.0;7.621289842063561e-05;0.0;0.0;0.0;7.621289842063561e-05,3.999999975690116e-08;0.0;0.0;0.0;3.999999975690116e-08;0.0;0.0;0.0;3.999999975690116e-08
20,540000000,20.54,imu_link,-0.012368960183456328,0.003367158982575598,-0.0035034587749665546,2.257997851580479e-05,7.087151530389677e-05,9.79995668618823,-4.61557079480095e-10,5.330484785032057e-08,-4.98910555987432e-08,0.9999999999999973,0.0;0.0;0.0;0.0;0.0;0.0;0.0;0.0;0.0,7.621289842063561e-05;0.0;0.0;0.0;7.621289842063561e-05;0.0;0.0;0.0;7.621289842063561e-05,3.999999975690116e-08;0.0;0.0;0.0;3.999999975690116e-08;0.0;0.0;0.0;3.999999975690116e-08
20,560000000,20.56,imu_link,0.007206815588733813,0.0018273954470251162,0.005448049675440058,6.978183038020919e-05,0.00026814424983569467,9.80034394592423,-4.615570795115227e-10,5.330484785049523e-08,-4.9891055598767644e-08,0.9999999999999973,0.0;0.0;0.0;0.0;0.0;0.0;0.0;0.0;0.0,7.621289842063561e-05;0.0;0.0;0.0;7.621289842063561e-05;0.0;0.0;0.0;7.621289842063561e-05,3.999999975690116e-08;0.0;0.0;0.0;3.999999975690116e-08;0.0;0.0;0.0;3.999999975690116e-08
20,580000000,20.58,imu_link,0.004054834865377824,0.0007859066718397179,0.008518902875065926,3.5814330137029076e-05,4.591238650586383e-05,9.799991249964203,-4.6155707954667626e-10,5.330484785067584e-08,-4.98910555987889e-08,0.9999999999999973,0.0;0.0;0.0;0.0;0.0;0.0;0.0;0.0;0.0,7.621289842063561e-05;0.0;0.0;0.0;7.621289842063561e-05;0.0;0.0;0.0;7.621289842063561e-05,3.999999975690116e-08;0.0;0.0;0.0;3.999999975690116e-08;0.0;0.0;0.0;3.999999975690116e-08
20,600000000,20.6,imu_link,0.0043177099723819,0.003946205458581514,0.00764881562415973,-0.00011755054052632674,-0.0003279618744850987,9.799931056673726,-4.615570795740402e-10,5.330484785074074e-08,-4.9891055598808745e-08,0.9999999999999973,0.0;0.0;0.0;0.0;0.0;0.0;0.0;0.0;0.0,7.621289842063561e-05;0.0;0.0;0.0;7.621289842063561e-05;0.0;0.0;0.0;7.621289842063561e-05,3.999999975690116e-08;0.0;0.0;0.0;3.999999975690116e-08;0.0;0.0;0.0;3.999999975690116e-08
20,620000000,20.62,imu_link,-0.0008030100392926062,-0.001233831953178863,0.0013949835953014735,0.0002086562465117735,-0.00031608118034156667,9.800380632841316,-4.6155707937787413e-10,5.3304847850414125e-08,-4.9891055598829835e-08,0.9999999999999973,0.0;0.0;0.0;0.0;0.0;0.0;0.0;0.0;0.0,7.621289842063561e-05;0.0;0.0;0.0;7.621289842063561e-05;0.0;0.0;0.0;7.621289842063561e-05,3.999999975690116e-08;0.0;0.0;0.0;3.999999975690116e-08;0.0;0.0;0.0;3.999999975690116e-08
20,640000000,20.64,imu_link,0.0016378302410020222,-0.013514497918101777,0.001034253712284097,0.00047009229390784817,-0.0002503724646977233,9.799796780775965,-4.615570795481435e-10,5.3304847850584795e-08,-4.98910555988522e-08,0.9999999999999973,0.0;0.0;0.0;0.0;0.0;0.0;0.0;0.0;0.0,7.621289842063561e-05;0.0;0.0;0.0;7.621289842063561e-05;0.0;0.0;0.0;7.621289842063561e-05,3.999999975690116e-08;0.0;0.0;0.0;3.999999975690116e-08;0.0;0.0;0.0;3.999999975690116e-08
20,660000000,20.66,imu_link,-0.007098636981161852,-0.004136839096142534,0.014893925480230065,8.151744736569275e-05,-0.00010349295884284276,9.800109494395809,-4.615570795893275e-10,5.330484785030344e-08,-4.989105559887398e-08,0.9999999999999973,0.0;0.0;0.0;0.0;0.0;0.0;0.0;0.0;0.0,7.621289842063561e-05;0.0;0.0;0.0;7.621289842063561e-05;0.0;0.0;0.0;7.621289842063561e-05,3.999999975690116e-08;0.0;0.0;0.0;3.999999975690116e-08;0.0;0.0;0.0;3.999999975690116e-08
20,680000000,20.68,imu_link,-0.017254947151782937,-0.002969487188488421,0.007970693827527906,0.00014159572340757565,0.00020684823001380318,9.800102618101137,-4.615570793938393e-10,5.3304847850430285e-08,-4.989105559889622e-08,0.9999999999999973,0.0;0.0;0.0;0.0;0.0;0.0;0.0;0.0;0.0,7.621289842063561e-05;0.0;0.0;0.0;7.621289842063561e-05;0.0;0.0;0.0;7.621289842063561e-05,3.999999975690116e-08;0.0;0.0;0.0;3.999999975690116e-08;0.0;0.0;0.0;3.999999975690116e-08
20,700000000,20.7,imu_link,-0.0071149050842691675,-0.010326129431368963,-0.0036068230280243696,-2.7162801602917774e-05,6.426855115640434e-05,9.799909692514305,-4.615570795630122e-10,5.330484785059841e-08,-4.98910555989177e-08,0.9999999999999973,0.0;0.0;0.0;0.0;0.0;0.0;0.0;0.0;0.0,7.621289842063561e-05;0.0;0.0;0.0;7.621289842063561e-05;0.0;0.0;0.0;7.621289842063561e-05,3.999999975690116e-08;0.0;0.0;0.0;3.999999975690116e-08;0.0;0.0;0.0;3.999999975690116e-08
20,720000000,20.72,imu_link,0.005051107788841165,-1.7275238587807737e-05,-0.00024391234754148031,0.00014732852817896276,-0.0002519743003943221,9.800123961933474,-4.6155707934788847e-10,5.3304847850734065e-08,-4.989105559894022e-08,0.9999999999999973,0.0;0.0;0.0;0.0;0.0;0.0;0.0;0.0;0.0,7.621289842063561e-05;0.0;0.0;0.0;7.621289842063561e-05;0.0;0.0;0.0;7.621289842063561e-05,3.999999975690116e-08;0.0;0.0;0.0;3.999999975690116e-08;0.0;0.0;0.0;3.999999975690116e-08
20,740000000,20.74,imu_link,-0.0029667158738454643,0.007212418224578081,-0.017817974035278662,0.00035421293433644487,1.1701808232151374e-05,9.800119939722457,-4.6155707940518903e-10,5.33048478502785e-08,-4.989105559896164e-08,0.9999999999999973,0.0;0.0;0.0;0.0;0.0;0.0;0.0;0.0;0.0,7.621289842063561e-05;0.0;0.0;0.0;7.621289842063561e-05;0.0;0.0;0.0;7.621289842063561e-05,3.999999975690116e-08;0.0;0.0;0.0;3.999999975690116e-08;0.0;0.0;0.0;3.999999975690116e-08
20,760000000,20.76,imu_link,0.004366753295063824,0.0017820251817816728,0.006184608024506803,3.0027606680314942e-05,-8.735936401893606e-05,9.800242698996144,-4.615570794415733e-10,5.3304847850591294e-08,-4.989105559898248e-08,0.9999999999999973,0.0;0.0;0.0;0.0;0.0;0.0;0.0;0.0;0.0,7.621289842063561e-05;0.0;0.0;0.0;7.621289842063561e-05;0.0;0.0;0.0;7.621289842063561e-05,3.999999975690116e-08;0.0;0.0;0.0;3.999999975690116e-08;0.0;0.0;0.0;3.999999975690116e-08
20,780000000,20.78,imu_link,0.00893583868289014,0.003150485085616752,-0.01534775456962065,0.00023227973171289788,-0.00040617062671140984,9.800268521478918,-4.6155707960085276e-10,5.330484785063488e-08,-4.9891055599003033e-08,0.9999999999999973,0.0;0.0;0.0;0.0;0.0;0.0;0.0;0.0;0.0,7.621289842063561e-05;0.0;0.0;0.0;7.621289842063561e-05;0.0;0.0;0.0;7.621289842063561e-05,3.999999975690116e-08;0.0;0.0;0.0;3.999999975690116e-08;0.0;0.0;0.0;3.999999975690116e-08
20,800000000,20.8,imu_link,0.009285488378940268,-0.01652075368663066,0.003440101495724093,-8.026301341460475e-05,-0.0001634899525446689,9.800020519190985,-4.6155707952838155e-10,5.3304847850297764e-08,-4.989105559902302e-08,0.9999999999999973,0.0;0.0;0.0;0.0;0.0;0.0;0.0;0.0;0.0,7.621289842063561e-05;0.0;0.0;0.0;7.621289842063561e-05;0.0;0.0;0.0;7.621289842063561e-05,3.999999975690116e-08;0.0;0.0;0.0;3.999999975690116e-08;0.0;0.0;0.0;3.999999975690116e-08
20,820000000,20.82,imu_link,0.010510015429091982,0.01825831867059455,-0.006362020192064833,0.0004784625528692747,-0.00016713627057679065,9.8000020676252,-4.6155707945196413e-10,5.33048478503057e-08,-4.989105559904202e-08,0.9999999999999973,0.0;0.0;0.0;0.0;0.0;0.0;0.0;0.0;0.0,7.621289842063561e-05;0.0;0.0;0.0;7.621289842063561e-05;0.0;0.0;0.0;7.621289842063561e-05,3.999999975690116e-08;0.0;0.0;0.0;3.999999975690116e-08;0.0;0.0;0.0;3.999999975690116e-08
20,840000000,20.84,imu_link,-0.011543513379644058,0.00024940017991236207,0.006828423532678625,7.035878289580508e-05,1.7116511958154842e-05,9.799939588957042,-4.6155707957830294e-10,5.3304847850652234e-08,-4.9891055599060274e-08,0.9999999999999973,0.0;0.0;0.0;0.0;0.0;0.0;0.0;0.0;0.0,7.621289842063561e-05;0.0;0.0;0.0;7.621289842063561e-05;0.0;0.0;0.0;7.621289842063561e-05,3.999999975690116e-08;0.0;0.0;0.0;3.999999975690116e-08;0.0;0.0;0.0;3.999999975690116e-08
20,860000000,20.86,imu_link,0.012167084151220494,-0.004192998332330077,0.009431936378925627,0.00019520019994936818,9.231654884857487e-05,9.800033151389409,-4.615570793498664e-10,5.330484785078111e-08,-4.989105559907881e-08,0.9999999999999973,0.0;0.0;0.0;0.0;0.0;0.0;0.0;0.0;0.0,7.621289842063561e-05;0.0;0.0;0.0;7.621289842063561e-05;0.0;0.0;0.0;7.621289842063561e-05,3.999999975690116e-08;0.0;0.0;0.0;3.999999975690116e-08;0.0;0.0;0.0;3.999999975690116e-08
20,880000000,20.88,imu_link,-0.006295789143281736,0.013252617171283319,0.004913240363290651,4.9250923310080645e-05,4.897677420329583e-05,9.80012565096662,-4.6155707941894085e-10,5.3304847850308127e-08,-4.9891055599095466e-08,0.9999999999999973,0.0;0.0;0.0;0.0;0.0;0.0;0.0;0.0;0.0,7.621289842063561e-05;0.0;0.0;0.0;7.621289842063561e-05;0.0;0.0;0.0;7.621289842063561e-05,3.999999975690116e-08;0.0;0.0;0.0;3.999999975690116e-08;0.0;0.0;0.0;3.999999975690116e-08
20,900000000,20.9,imu_link,-0.002682501323137141,-0.011822006352510347,0.012265591824121909,0.00017974109669181018,0.00010543455098307054,9.80018539134273,-4.615570794306685e-10,5.330484785066643e-08,-4.989105559911126e-08,0.9999999999999973,0.0;0.0;0.0;0.0;0.0;0.0;0.0;0.0;0.0,7.621289842063561e-05;0.0;0.0;0.0;7.621289842063561e-05;0.0;0.0;0.0;7.621289842063561e-05,3.999999975690116e-08;0.0;0.0;0.0;3.999999975690116e-08;0.0;0.0;0.0;3.999999975690116e-08
20,920000000,20.92,imu_link,-0.022735805046793633,-0.0012856795373103822,0.005849471817374881,-3.7175789376043205e-05,-1.1944379551640422e-05,9.800028462903489,-4.6155707947277537e-10,5.3304847850845026e-08,-4.9891055599127964e-08,0.9999999999999973,0.0;0.0;0.0;0.0;0.0;0.0;0.0;0.0;0.0,7.621289842063561e-05;0.0;0.0;0.0;7.621289842063561e-05;0.0;0.0;0.0;7.621289842063561e-05,3.999999975690116e-08;0.0;0.0;0.0;3.999999975690116e-08;0.0;0.0;0.0;3.999999975690116e-08
20,940000000,20.94,imu_link,-0.0049474868315061175,-0.002272792846094941,-0.01626149351240561,-0.00019145190148638368,0.0004927505284031628,9.800186692752415,-4.6155707954576434e-10,5.330484785036342e-08,-4.989105559914318e-08,0.9999999999999973,0.0;0.0;0.0;0.0;0.0;0.0;0.0;0.0;0.0,7.621289842063561e-05;0.0;0.0;0.0;7.621289842063561e-05;0.0;0.0;0.0;7.621289842063561e-05,3.999999975690116e-08;0.0;0.0;0.0;3.999999975690116e-08;0.0;0.0;0.0;3.999999975690116e-08
20,960000000,20.96,imu_link,0.012532159092281775,-0.005383565156924736,-0.0003412086028281356,2.305302166112226e-05,0.00013486452656977384,9.800385402754516,-4.615570794833213e-10,5.330484785049995e-08,-4.9891055599158894e-08,0.9999999999999973,0.0;0.0;0.0;0.0;0.0;0.0;0.0;0.0;0.0,7.621289842063561e-05;0.0;0.0;0.0;7.621289842063561e-05;0.0;0.0;0.0;7.621289842063561e-05,3.999999975690116e-08;0.0;0.0;0.0;3.999999975690116e-08;0.0;0.0;0.0;3.999999975690116e-08
20,980000000,20.98,imu_link,-0.006334489569760615,0.0052170525422502185,-0.022458193234462773,0.00037008270151872347,2.795574825127596e-05,9.799830502985465,-4.61557079553175e-10,5.33048478506155e-08,-4.989105559917489e-08,0.9999999999999973,0.0;0.0;0.0;0.0;0.0;0.0;0.0;0.0;0.0,7.621289842063561e-05;0.0;0.0;0.0;7.621289842063561e-05;0.0;0.0;0.0;7.621289842063561e-05,3.999999975690116e-08;0.0;0.0;0.0;3.999999975690116e-08;0.0;0.0;0.0;3.999999975690116e-08
21,0,21.0,imu_link,0.0020712362741769547,0.010582296380320474,0.0030068035817084433,0.00021282774476344402,-0.000339291254647769,9.799840957837468,-4.615570794886161e-10,5.330484785028056e-08,-4.989105559919224e-08,0.9999999999999973,0.0;0.0;0.0;0.0;0.0;0.0;0.0;0.0;0.0,7.621289842063561e-05;0.0;0.0;0.0;7.621289842063561e-05;0.0;0.0;0.0;7.621289842063561e-05,3.999999975690116e-08;0.0;0.0;0.0;3.999999975690116e-08;0.0;0.0;0.0;3.999999975690116e-08
21,20000000,21.02,imu_link,-0.00047350936127974933,0.0014960734894057272,-0.022084986095468735,0.00037332151384862936,2.9432569980518823e-05,9.800360329085485,-4.6155707952958314e-10,5.3304847850463054e-08,-4.989105559920877e-08,0.9999999999999973,0.0;0.0;0.0;0.0;0.0;0.0;0.0;0.0;0.0,7.621289842063561e-05;0.0;0.0;0.0;7.621289842063561e-05;0.0;0.0;0.0;7.621289842063561e-05,3.999999975690116e-08;0.0;0.0;0.0;3.999999975690116e-08;0.0;0.0;0.0;3.999999975690116e-08
21,40000000,21.04,imu_link,0.008196666917482007,0.005728013808688539,0.008572823264145083,-2.4809584617005507e-05,0.0001408428848635583,9.800200494247603,-4.615570795675181e-10,5.330484785063936e-08,-4.989105559922596e-08,0.9999999999999973,0.0;0.0;0.0;0.0;0.0;0.0;0.0;0.0;0.0,7.621289842063561e-05;0.0;0.0;0.0;7.621289842063561e-05;0.0;0.0;0.0;7.621289842063561e-05,3.999999975690116e-08;0.0;0.0;0.0;3.999999975690116e-08;0.0;0.0;0.0;3.999999975690116e-08
21,60000000,21.06,imu_link,0.005058197093364126,-0.0006327694133366168,-0.004163889410664432,-0.00021301514254971999,5.338164110495101e-05,9.799991460286932,-4.61557079371568e-10,5.330484785030423e-08,-4.989105559924288e-08,0.9999999999999973,0.0;0.0;0.0;0.0;0.0;0.0;0.0;0.0;0.0,7.621289842063561e-05;0.0;0.0;0.0;7.621289842063561e-05;0.0;0.0;0.0;7.621289842063561e-05,3.999999975690116e-08;0.0;0.0;0.0;3.999999975690116e-08;0.0;0.0;0.0;3.999999975690116e-08
21,80000000,21.08,imu_link,-0.010579535502942683,0.011180442973522588,-0.006104192598404475,0.00024174142105765203,-3.919313151747901e-07,9.800495156390003,-4.615570794079228e-10,5.3304847850485686e-08,-4.989105559926004e-08,0.9999999999999973,0.0;0.0;0.0;0.0;0.0;0.0;0.0;0.0;0.0,7.621289842063561e-05;0.0;0.0;0.0;7.621289842063561e-05;0.0;0.0;0.0;7.621289842063561e-05,3.999999975690116e-08;0.0;0.0;0.0;3.999999975690116e-08;0.0;0.0;0.0;3.999999975690116e-08
21,100000000,21.1,imu_link,0.001683012099244879,0.00359778195967276,0.006655380279022785,0.00029732564283897035,-0.00025340710143736966,9.80011509946382,-4.6155707943821794e-10,5.330484785065294e-08,-4.9891055599277585e-08,0.9999999999999973,0.0;0.0;0.0;0.0;0.0;0.0;0.0;0.0;0.0,7.621289842063561e-05;0.0;0.0;0.0;7.621289842063561e-05;0.0;0.0;0.0;7.621289842063561e-05,3.999999975690116e-08;0.0;0.0;0.0;3.999999975690116e-08;0.0;0.0;0.0;3.999999975690116e-08
21,120000000,21.12,imu_link,0.0066949672489002065,-0.0014590412172500466,0.0088847568919487,6.89336422217187e-05,-4.9196108710278485e-05,9.800190696980094,-4.6155707961369184e-10,5.3304847850715755e-08,-4.989105559929545e-08,0.9999999999999973,0.0;0.0;0.0;0.0;0.0;0.0;0.0;0.0;0.0,7.621289842063561e-05;0.0;0.0;0.0;7.621289842063561e-05;0.0;0.0;0.0;7.621289842063561e-05,3.999999975690116e-08;0.0;0.0;0.0;3.999999975690116e-08;0.0;0.0;0.0;3.999999975690116e-08
21,140000000,21.14,imu_link,0.005982001153874848,-0.008528782698101521,0.0005096527075944554,0.00016061748329101577,-0.00031902758750766236,9.800106313377979,-4.615570793978023e-10,5.330484785037599e-08,-4.9891055599311684e-08,0.9999999999999973,0.0;0.0;0.0;0.0;0.0;0.0;0.0;0.0;0.0,7.621289842063561e-05;0.0;0.0;0.0;7.621289842063561e-05;0.0;0.0;0.0;7.621289842063561e-05,3.999999975690116e-08;0.0;0.0;0.0;3.999999975690116e-08;0.0;0.0;0.0;3.999999975690116e-08
21,160000000,21.16,imu_link,-0.009090066897630072,-0.005393360713263732,-0.010148030114228131,0.00017829865471637594,-0.0001631634567141109,9.80032253525945,-4.6155707956858506e-10,5.330484785042661e-08,-4.989105559932779e-08,0.9999999999999973,0.0;0.0;0.0;0.0;0.0;0.0;0.0;0.0;0.0,7.621289842063561e-05;0.0;0.0;0.0;7.621289842063561e-05;0.0;0.0;0.0;7.621289842063561e-05,3.999999975690116e-08;0.0;0.0;0.0;3.999999975690116e-08;0.0;0.0;0.0;3.999999975690116e-08
21,180000000,21.18,imu_link,-0.004832581180927102,-0.007373183221845624,-0.012822873130132854,-3.2054466154882736e-05,-0.0002280016998267806,9.800331029051199,-4.615570794617222e-10,5.330484785072909e-08,-4.989105559934441e-08,0.9999999999999973,0.0;0.0;0.0;0.0;0.0;0.0;0.0;0.0;0.0,7.621289842063561e-05;0.0;0.0;0.0;7.621289842063561e-05;0.0;0.0;0.0;7.621289842063561e-05,3.999999975690116e-08;0.0;0.0;0.0;3.999999975690116e-08;0.0;0.0;0.0;3.999999975690116e-08
21,200000000,21.2,imu_link,-0.0030774720966397426,0.0013748698520243607,-0.006210834815713781,-0.00017852010473504864,-2.4281134043232995e-05,9.800333232782531,-4.6155707941176005e-10,5.330484785073914e-08,-4.9891055599361785e-08,0.9999999999999973,0.0;0.0;0.0;0.0;0.0;0.0;0.0;0.0;0.0,7.621289842063561e-05;0.0;0.0;0.0;7.621289842063561e-05;0.0;0.0;0.0;7.621289842063561e-05,3.999999975690116e-08;0.0;0.0;0.0;3.999999975690116e-08;0.0;0.0;0.0;3.999999975690116e-08
21,220000000,21.22,imu_link,0.002933786766199056,-0.0064442276100946366,-0.01697290085435061,0.00019686919932765146,-0.00016086164295232855,9.800154096175646,-4.6155707958097266e-10,5.3304847850437656e-08,-4.9891055599378646e-08,0.9999999999999973,0.0;0.0;0.0;0.0;0.0;0.0;0.0;0.0;0.0,7.621289842063561e-05;0.0;0.0;0.0;7.621289842063561e-05;0.0;0.0;0.0;7.621289842063561e-05,3.999999975690116e-08;0.0;0.0;0.0;3.999999975690116e-08;0.0;0.0;0.0;3.999999975690116e-08
21,240000000,21.24,imu_link,-0.012263238372795979,-0.0026183612669336566,-0.0018807645757290307,4.6133568711860516e-05,-0.0002744611026546341,9.799977482083134,-4.615570795004754e-10,5.330484785043617e-08,-4.9891055599395474e-08,0.9999999999999973,0.0;0.0;0.0;0.0;0.0;0.0;0.0;0.0;0.0,7.621289842063561e-05;0.0;0.0;0.0;7.621289842063561e-05;0.0;0.0;0.0;7.621289842063561e-05,3.999999975690116e-08;0.0;0.0;0.0;3.999999975690116e-08;0.0;0.0;0.0;3.999999975690116e-08
21,260000000,21.26,imu_link,-0.0007124535602489123,-0.003947565028801095,-0.015428733498414858,-0.00010248711156802176,2.836427336691221e-05,9.80032874500491,-4.615570793922723e-10,5.330484785074852e-08,-4.9891055599412256e-08,0.9999999999999973,0.0;0.0;0.0;0.0;0.0;0.0;0.0;0.0;0.0,7.621289842063561e-05;0.0;0.0;0.0;7.621289842063561e-05;0.0;0.0;0.0;7.621289842063561e-05,3.999999975690116e-08;0.0;0.0;0.0;3.999999975690116e-08;0.0;0.0;0.0;3.999999975690116e-08
21,280000000,21.28,imu_link,0.009532581435730082,-0.015547108987179026,-0.00047592831804735205,-4.212771875699026e-05,6.722075997625934e-05,9.800448257273315,-4.615570794619048e-10,5.330484785028313e-08,-4.989105559942947e-08,0.9999999999999973,0.0;0.0;0.0;0.0;0.0;0.0;0.0;0.0;0.0,7.621289842063561e-05;0.0;0.0;0.0;7.621289842063561e-05;0.0;0.0;0.0;7.621289842063561e-05,3.999999975690116e-08;0.0;0.0;0.0;3.999999975690116e-08;0.0;0.0;0.0;3.999999975690116e-08
21,300000000,21.3,imu_link,-0.026236222064802132,-0.009870935613324998,0.011606027306625325,7.8072790983784e-05,-0.0001561736652586785,9.80005179447638,-4.6155707950554516e-10,5.330484785046228e-08,-4.9891055599445284e-08,0.9999999999999973,0.0;0.0;0.0;0.0;0.0;0.0;0.0;0.0;0.0,7.621289842063561e-05;0.0;0.0;0.0;7.621289842063561e-05;0.0;0.0;0.0;7.621289842063561e-05,3.999999975690116e-08;0.0;0.0;0.0;3.999999975690116e-08;0.0;0.0;0.0;3.999999975690116e-08
21,320000000,21.32,imu_link,0.012399597995995099,-0.00010220358346732025,0.01629213177002115,0.00021579166686094446,-0.00015154771398451483,9.799959843679806,-4.6155707951705476e-10,5.3304847850822825e-08,-4.9891055599461364e-08,0.9999999999999973,0.0;0.0;0.0;0.0;0.0;0.0;0.0;0.0;0.0,7.621289842063561e-05;0.0;0.0;0.0;7.621289842063561e-05;0.0;0.0;0.0;7.621289842063561e-05,3.999999975690116e-08;0.0;0.0;0.0;3.999999975690116e-08;0.0;0.0;0.0;3.999999975690116e-08
21,340000000,21.34,imu_link,0.002514510883174038,-0.006145104237502093,0.000983868134289106,-7.505495331789833e-05,-9.184810559960104e-05,9.799862507499428,-4.6155707949196586e-10,5.330484785030005e-08,-4.989105559947751e-08,0.9999999999999973,0.0;0.0;0.0;0.0;0.0;0.0;0.0;0.0;0.0,7.621289842063561e-05;0.0;0.0;0.0;7.621289842063561e-05;0.0;0.0;0.0;7.621289842063561e-05,3.999999975690116e-08;0.0;0.0;0.0;3.999999975690116e-08;0.0;0.0;0.0;3.999999975690116e-08
21,360000000,21.36,imu_link,0.0003834133340252818,0.021615639081248833,-0.023611972166971324,0.00015948812775181352,-0.00014107076116188426,9.800169099817067,-4.6155707952550927e-10,5.3304847850479234e-08,-4.989105559949434e-08,0.9999999999999973,0.0;0.0;0.0;0.0;0.0;0.0;0.0;0.0;0.0,7.621289842063561e-05;0.0;0.0;0.0;7.621289842063561e-05;0.0;0.0;0.0;7.621289842063561e-05,3.999999975690116e-08;0.0;0.0;0.0;3.999999975690116e-08;0.0;0.0;0.0;3.999999975690116e-08
21,380000000,21.38,imu_link,0.0034281864232588496,0.015019636749698117,-0.007403994568597561,-0.00019511636118527026,-7.878216154111952e-07,9.799822813489252,-4.6155707955699973e-10,5.3304847850658514e-08,-4.9891055599510174e-08,0.9999999999999973,0.0;0.0;0.0;0.0;0.0;0.0;0.0;0.0;0.0,7.621289842063561e-05;0.0;0.0;0.0;7.621289842063561e-05;0.0;0.0;0.0;7.621289842063561e-05,3.999999975690116e-08;0.0;0.0;0.0;3.999999975690116e-08;0.0;0.0;0.0;3.999999975690116e-08
21,400000000,21.4,imu_link,0.0065325230339809805,-0.007234583239472965,0.0017371046254593978,7.135657153833889e-05,0.00027303651482040716,9.800306459086142,-4.615570795919888e-10,5.330484785037192e-08,-4.989105559952887e-08,0.9999999999999973,0.0;0.0;0.0;0.0;0.0;0.0;0.0;0.0;0.0,7.621289842063561e-05;0.0;0.0;0.0;7.621289842063561e-05;0.0;0.0;0.0;7.621289842063561e-05,3.999999975690116e-08;0.0;0.0;0.0;3.999999975690116e-08;0.0;0.0;0.0;3.999999975690116e-08
21,420000000,21.42,imu_link,0.00846988762865957,0.009678636683340817,-0.0033521114223584135,0.00014651583883102233,-2.096802201149543e-05,9.800036995124076,-4.6155707938212915e-10,5.330484785050347e-08,-4.989105559954404e-08,0.9999999999999973,0.0;0.0;0.0;0.0;0.0;0.0;0.0;0.0;0.0,7.621289842063561e-05;0.0;0.0;0.0;7.621289842063561e-05;0.0;0.0;0.0;7.621289842063561e-05,3.999999975690116e-08;0.0;0.0;0.0;3.999999975690116e-08;0.0;0.0;0.0;3.999999975690116e-08
21,440000000,21.44,imu_link,0.009114040498771016,-0.0035975061704088813,0.013009656014875465,0.0001823518621137045,-0.000144847290840695,9.799761182990336,-4.6155707940705525e-10,5.3304847850562236e-08,-4.989105559956091e-08,0.9999999999999973,0.0;0.0;0.0;0.0;0.0;0.0;0.0;0.0;0.0,7.621289842063561e-05;0.0;0.0;0.0;7.621289842063561e-05;0.0;0.0;0.0;7.621289842063561e-05,3.999999975690116e-08;0.0;0.0;0.0;3.999999975690116e-08;0.0;0.0;0.0;3.999999975690116e-08
21,460000000,21.46,imu_link,-0.005477276966723018,-0.004961482045064962,0.00999871034405488,0.00046871096270615845,-9.407074715083817e-05,9.800156399279341,-4.6155707968093134e-10,5.3304847850912306e-08,-4.989105559957648e-08,0.9999999999999973,0.0;0.0;0.0;0.0;0.0;0.0;0.0;0.0;0.0,7.621289842063561e-05;0.0;0.0;0.0;7.621289842063561e-05;0.0;0.0;0.0;7.621289842063561e-05,3.999999975690116e-08;0.0;0.0;0.0;3.999999975690116e-08;0.0;0.0;0.0;3.999999975690116e-08
21,480000000,21.48,imu_link,-0.013300580915064083,-0.006096720388743864,-0.006891340300079219,-0.00026711366472074083,-7.762878665938593e-05,9.800558503615083,-4.615570795097837e-10,5.330484785027737e-08,-4.989105559959312e-08,0.9999999999999973,0.0;0.0;0.0;0.0;0.0;0.0;0.0;0.0;0.0,7.621289842063561e-05;0.0;0.0;0.0;7.621289842063561e-05;0.0;0.0;0.0;7.621289842063561e-05,3.999999975690116e-08;0.0;0.0;0.0;3.999999975690116e-08;0.0;0.0;0.0;3.999999975690116e-08
21,500000000,21.5,imu_link,-0.0011533084923128205,-0.006048436035907268,-0.004643823543018082,0.00014834855379769143,-0.00010954251423344672,9.800300448849178,-4.6155707939031704e-10,5.330484785057622e-08,-4.989105559960981e-08,0.9999999999999973,0.0;0.0;0.0;0.0;0.0;0.0;0.0;0.0;0.0,7.621289842063561e-05;0.0;0.0;0.0;7.621289842063561e-05;0.0;0.0;0.0;7.621289842063561e-05,3.999999975690116e-08;0.0;0.0;0.0;3.999999975690116e-08;0.0;0.0;0.0;3.999999975690116e-08
21,520000000,21.52,imu_link,0.0026036765085658315,0.003465464443911804,-0.006878532065277334,0.0004269997904652453,-0.00017126327094019913,9.799717656426221,-4.6155707942612476e-10,5.330484785075829e-08,-4.989105559962678e-08,0.9999999999999973,0.0;0.0;0.0;0.0;0.0;0.0;0.0;0.0;0.0,7.621289842063561e-05;0.0;0.0;0.0;7.621289842063561e-05;0.0;0.0;0.0;7.621289842063561e-05,3.999999975690116e-08;0.0;0.0;0.0;3.999999975690116e-08;0.0;0.0;0.0;3.999999975690116e-08
21,540000000,21.54,imu_link,-0.007244038907642046,0.007807529840261832,0.007608521645016318,4.404545714688425e-06,8.806807005463402e-05,9.80009317279348,-4.6155707949591895e-10,5.330484785029469e-08,-4.9891055599643046e-08,0.9999999999999973,0.0;0.0;0.0;0.0;0.0;0.0;0.0;0.0;0.0,7.621289842063561e-05;0.0;0.0;0.0;7.621289842063561e-05;0.0;0.0;0.0;7.621289842063561e-05,3.999999975690116e-08;0.0;0.0;0.0;3.999999975690116e-08;0.0;0.0;0.0;3.999999975690116e-08
21,560000000,21.56,imu_link,0.01399599751110415,0.02576855157714017,-0.007845732463673448,-6.463698248268074e-05,-0.00027595854207874927,9.800013066063945,-4.6155707953759815e-10,5.3304847850476064e-08,-4.9891055599658677e-08,0.9999999999999973,0.0;0.0;0.0;0.0;0.0;0.0;0.0;0.0;0.0,7.621289842063561e-05;0.0;0.0;0.0;7.621289842063561e-05;0.0;0.0;0.0;7.621289842063561e-05,3.999999975690116e-08;0.0;0.0;0.0;3.999999975690116e-08;0.0;0.0;0.0;3.999999975690116e-08
21,580000000,21.58,imu_link,-0.003939126971290433,-0.0012339276812600567,0.005583644175835092,0.0001289597654135878,-8.191932607263446e-06,9.799971869624756,-4.615570794382472e-10,5.330484785067208e-08,-4.989105559967432e-08,0.9999999999999973,0.0;0.0;0.0;0.0;0.0;0.0;0.0;0.0;0.0,7.621289842063561e-05;0.0;0.0;0.0;7.621289842063561e-05;0.0;0.0;0.0;7.621289842063561e-05,3.999999975690116e-08;0.0;0.0;0.0;3.999999975690116e-08;0.0;0.0;0.0;3.999999975690116e-08
21,600000000,21.6,imu_link,-0.0077902602146661115,-0.007795841799823871,-0.0004496664157513115,-6.944158419842423e-05,0.00010168902844303156,9.800265926551623,-4.615570793301651e-10,5.330484785086749e-08,-4.989105559969056e-08,0.9999999999999973,0.0;0.0;0.0;0.0;0.0;0.0;0.0;0.0;0.0,7.621289842063561e-05;0.0;0.0;0.0;7.621289842063561e-05;0.0;0.0;0.0;7.621289842063561e-05,3.999999975690116e-08;0.0;0.0;0.0;3.999999975690116e-08;0.0;0.0;0.0;3.999999975690116e-08
21,620000000,21.62,imu_link,0.007897141945374829,-0.0016037187377556745,-0.012840100729916112,0.00011417997728394163,-0.00016489956848786129,9.800287531915302,-4.6155707951242664e-10,5.330484785058549e-08,-4.989105559970916e-08,0.9999999999999973,0.0;0.0;0.0;0.0;0.0;0.0;0.0;0.0;0.0,7.621289842063561e-05;0.0;0.0;0.0;7.621289842063561e-05;0.0;0.0;0.0;7.621289842063561e-05,3.999999975690116e-08;0.0;0.0;0.0;3.999999975690116e-08;0.0;0.0;0.0;3.999999975690116e-08
21,640000000,21.64,imu_link,0.006162971578206926,-0.013524412024063707,0.005092851708467325,-0.00012332152200197603,-8.965920998902108e-05,9.799907706365385,-4.6155707943773145e-10,5.3304847850590936e-08,-4.9891055599725394e-08,0.9999999999999973,0.0;0.0;0.0;0.0;0.0;0.0;0.0;0.0;0.0,7.621289842063561e-05;0.0;0.0;0.0;7.621289842063561e-05;0.0;0.0;0.0;7.621289842063561e-05,3.999999975690116e-08;0.0;0.0;0.0;3.999999975690116e-08;0.0;0.0;0.0;3.999999975690116e-08
21,660000000,21.66,imu_link,-0.0062358495261633,-0.003681487545765247,0.0019821311463011043,4.7517754949991674e-05,-0.00023752324998827353,9.800071918223829,-4.6155707946821316e-10,5.330484785077058e-08,-4.9891055599741825e-08,0.9999999999999973,0.0;0.0;0.0;0.0;0.0;0.0;0.0;0.0;0.0,7.621289842063561e-05;0.0;0.0;0.0;7.621289842063561e-05;0.0;0.0;0.0;7.621289842063561e-05,3.999999975690116e-08;0.0;0.0;0.0;3.999999975690116e-08;0.0;0.0;0.0;3.999999975690116e-08
21,680000000,21.68,imu_link,0.0007001893167962124,0.00765713429291818,-0.004156321100858054,7.143536510535598e-05,-9.919560777885662e-05,9.8000129418989,-4.615570795330726e-10,5.3304847850318655e-08,-4.9891055599757554e-08,0.9999999999999973,0.0;0.0;0.0;0.0;0.0;0.0;0.0;0.0;0.0,7.621289842063561e-05;0.0;0.0;0.0;7.621289842063561e-05;0.0;0.0;0.0;7.621289842063561e-05,3.999999975690116e-08;0.0;0.0;0.0;3.999999975690116e-08;0.0;0.0;0.0;3.999999975690116e-08
21,700000000,21.7,imu_link,-0.005002745451178851,-0.010486754689711273,-0.004731642852542749,0.0001784392666138569,-9.75036427457221e-06,9.800534080109543,-4.6155707966426825e-10,5.33048478506635e-08,-4.989105559977501e-08,0.9999999999999973,0.0;0.0;0.0;0.0;0.0;0.0;0.0;0.0;0.0,7.621289842063561e-05;0.0;0.0;0.0;7.621289842063561e-05;0.0;0.0;0.0;7.621289842063561e-05,3.999999975690116e-08;0.0;0.0;0.0;3.999999975690116e-08;0.0;0.0;0.0;3.999999975690116e-08
21,720000000,21.72,imu_link,0.0025746714636719382,-0.015868451298926247,0.001020556394724981,0.00042924124917628287,-0.00027159203954333673,9.800240802222753,-4.615570794561625e-10,5.3304847850790684e-08,-4.989105559979138e-08,0.9999999999999973,0.0;0.0;0.0;0.0;0.0;0.0;0.0;0.0;0.0,7.621289842063561e-05;0.0;0.0;0.0;7.621289842063561e-05;0.0;0.0;0.0;7.621289842063561e-05,3.999999975690116e-08;0.0;0.0;0.0;3.999999975690116e-08;0.0;0.0;0.0;3.999999975690116e-08
21,740000000,21.74,imu_link,0.007833132738928354,-0.011133947612496935,0.00015812554660860203,5.532330256589017e-05,0.00018415655431306002,9.79993707958086,-4.615570795207299e-10,5.330484785031171e-08,-4.989105559980906e-08,0.9999999999999973,0.0;0.0;0.0;0.0;0.0;0.0;0.0;0.0;0.0,7.621289842063561e-05;0.0;0.0;0.0;7.621289842063561e-05;0.0;0.0;0.0;7.621289842063561e-05,3.999999975690116e-08;0.0;0.0;0.0;3.999999975690116e-08;0.0;0.0;0.0;3.999999975690116e-08
21,760000000,21.76,imu_link,0.017340788804921493,-0.008498916806582053,-0.005382283795431229,0.00025492517799238106,7.69951099556589e-05,9.800206333218384,-4.615570795644811e-10,5.3304847850484e-08,-4.9891055599825205e-08,0.9999999999999973,0.0;0.0;0.0;0.0;0.0;0.0;0.0;0.0;0.0,7.621289842063561e-05;0.0;0.0;0.0;7.621289842063561e-05;0.0;0.0;0.0;7.621289842063561e-05,3.999999975690116e-08;0.0;0.0;0.0;3.999999975690116e-08;0.0;0.0;0.0;3.999999975690116e-08
21,780000000,21.78,imu_link,0.006823985230516319,0.011645507160661962,0.0038467320052887766,7.554862273878766e-07,-0.00031955448675979984,9.80002445298208,-4.6155707960343966e-10,5.3304847850664595e-08,-4.9891055599839505e-08,0.9999999999999973,0.0;0.0;0.0;0.0;0.0;0.0;0.0;0.0;0.0,7.621289842063561e-05;0.0;0.0;0.0;7.621289842063561e-05;0.0;0.0;0.0;7.621289842063561e-05,3.999999975690116e-08;0.0;0.0;0.0;3.999999975690116e-08;0.0;0.0;0.0;3.999999975690116e-08
21,800000000,21.8,imu_link,-0.006578088407452341,-0.007851403612415965,0.0013397519962168507,-7.315371531809573e-05,-7.916728694853478e-06,9.800245004899608,-4.6155707936867784e-10,5.3304847850319436e-08,-4.989105559985507e-08,0.9999999999999973,0.0;0.0;0.0;0.0;0.0;0.0;0.0;0.0;0.0,7.621289842063561e-05;0.0;0.0;0.0;7.621289842063561e-05;0.0;0.0;0.0;7.621289842063561e-05,3.999999975690116e-08;0.0;0.0;0.0;3.999999975690116e-08;0.0;0.0;0.0;3.999999975690116e-08
21,820000000,21.82,imu_link,0.014701689839451356,-0.005234448747627109,-0.004735692792491292,0.0002704165658373427,-0.00017639236167176598,9.799962263706828,-4.6155707938822666e-10,5.330484785048679e-08,-4.989105559987067e-08,0.9999999999999973,0.0;0.0;0.0;0.0;0.0;0.0;0.0;0.0;0.0,7.621289842063561e-05;0.0;0.0;0.0;7.621289842063561e-05;0.0;0.0;0.0;7.621289842063561e-05,3.999999975690116e-08;0.0;0.0;0.0;3.999999975690116e-08;0.0;0.0;0.0;3.999999975690116e-08
21,840000000,21.84,imu_link,-0.009423695503952535,-0.0023185424244333377,0.0042969758088449075,2.4300764580917046e-06,-0.00019683010256592228,9.800165474429262,-4.6155707942105166e-10,5.330484785066267e-08,-4.989105559988563e-08,0.9999999999999973,0.0;0.0;0.0;0.0;0.0;0.0;0.0;0.0;0.0,7.621289842063561e-05;0.0;0.0;0.0;7.621289842063561e-05;0.0;0.0;0.0;7.621289842063561e-05,3.999999975690116e-08;0.0;0.0;0.0;3.999999975690116e-08;0.0;0.0;0.0;3.999999975690116e-08
21,860000000,21.86,imu_link,-0.00022028403640774738,-0.02164977266560278,-0.008501627255668935,-1.3276790391255198e-05,-8.786442148719445e-05,9.800234444512613,-4.615570793658765e-10,5.330484785078615e-08,-4.9891055599902007e-08,0.9999999999999973,0.0;0.0;0.0;0.0;0.0;0.0;0.0;0.0;0.0,7.621289842063561e-05;0.0;0.0;0.0;7.621289842063561e-05;0.0;0.0;0.0;7.621289842063561e-05,3.999999975690116e-08;0.0;0.0;0.0;3.999999975690116e-08;0.0;0.0;0.0;3.999999975690116e-08
21,880000000,21.88,imu_link,0.01592108040383544,0.0029125704377105754,-0.007251649214915618,2.489871386653315e-05,0.00016186720958078673,9.80041416019862,-4.6155707940094554e-10,5.3304847850376716e-08,-4.9891055599916466e-08,0.9999999999999973,0.0;0.0;0.0;0.0;0.0;0.0;0.0;0.0;0.0,7.621289842063561e-05;0.0;0.0;0.0;7.621289842063561e-05;0.0;0.0;0.0;7.621289842063561e-05,3.999999975690116e-08;0.0;0.0;0.0;3.999999975690116e-08;0.0;0.0;0.0;3.999999975690116e-08
21,900000000,21.9,imu_link,-0.009168058706787188,-0.0020936589523514004,-0.015631101708310818,0.00016704233401845244,-0.00022506690338679566,9.800310077285328,-4.6155707955960193e-10,5.330484785042579e-08,-4.9891055599932056e-08,0.9999999999999973,0.0;0.0;0.0;0.0;0.0;0.0;0.0;0.0;0.0,7.621289842063561e-05;0.0;0.0;0.0;7.621289842063561e-05;0.0;0.0;0.0;7.621289842063561e-05,3.999999975690116e-08;0.0;0.0;0.0;3.999999975690116e-08;0.0;0.0;0.0;3.999999975690116e-08
21,920000000,21.92,imu_link,-0.002927178665604402,-0.012024844684379388,-0.011157588283147656,-0.00021074839710470334,-0.0003837499867882856,9.800123374550104,-4.615570796926265e-10,5.3304847850782836e-08,-4.989105559994805e-08,0.9999999999999973,0.0;0.0;0.0;0.0;0.0;0.0;0.0;0.0;0.0,7.621289842063561e-05;0.0;0.0;0.0;7.621289842063561e-05;0.0;0.0;0.0;7.621289842063561e-05,3.999999975690116e-08;0.0;0.0;0.0;3.999999975690116e-08;0.0;0.0;0.0;3.999999975690116e-08
21,940000000,21.94,imu_link,0.0063215368360237025,-0.004355909061816545,0.013899587166230128,0.00031048106170350844,-2.9210543179491742e-05,9.799821851660019,-4.615570793843735e-10,5.330484785027848e-08,-4.9891055599963165e-08,0.9999999999999973,0.0;0.0;0.0;0.0;0.0;0.0;0.0;0.0;0.0,7.621289842063561e-05;0.0;0.0;0.0;7.621289842063561e-05;0.0;0.0;0.0;7.621289842063561e-05,3.999999975690116e-08;0.0;0.0;0.0;3.999999975690116e-08;0.0;0.0;0.0;3.999999975690116e-08
21,960000000,21.96,imu_link,-0.008574304179329676,-0.017185797726191335,0.003005636321687981,8.742324596580253e-05,-0.0003078766017265066,9.800048711293448,-4.615570794246689e-10,5.330484785046634e-08,-4.989105559997902e-08,0.9999999999999973,0.0;0.0;0.0;0.0;0.0;0.0;0.0;0.0;0.0,7.621289842063561e-05;0.0;0.0;0.0;7.621289842063561e-05;0.0;0.0;0.0;7.621289842063561e-05,3.999999975690116e-08;0.0;0.0;0.0;3.999999975690116e-08;0.0;0.0;0.0;3.999999975690116e-08
21,980000000,21.98,imu_link,-0.00801551722267351,-0.0019597157670349407,-0.008804669379887999,7.129226202002514e-05,0.0001398209136500281,9.799958017185885,-4.6155707947734854e-10,5.3304847850653445e-08,-4.9891055599995445e-08,0.9999999999999973,0.0;0.0;0.0;0.0;0.0;0.0;0.0;0.0;0.0,7.621289842063561e-05;0.0;0.0;0.0;7.621289842063561e-05;0.0;0.0;0.0;7.621289842063561e-05,3.999999975690116e-08;0.0;0.0;0.0;3.999999975690116e-08;0.0;0.0;0.0;3.999999975690116e-08
22,0,22.0,imu_link,-0.00030318657758972165,-0.00165678361162426,-0.01211654013739453,-3.5357489578732786e-05,1.8322642921598343e-05,9.800140730468474,-4.6155707951376067e-10,5.3304847850841956e-08,-4.9891055600009805e-08,0.9999999999999973,0.0;0.0;0.0;0.0;0.0;0.0;0.0;0.0;0.0,7.621289842063561e-05;0.0;0.0;0.0;7.621289842063561e-05;0.0;0.0;0.0;7.621289842063561e-05,3.999999975690116e-08;0.0;0.0;0.0;3.999999975690116e-08;0.0;0.0;0.0;3.999999975690116e-08
22,20000000,22.02,imu_link,0.013850742012892187,0.005356090829883553,-0.004644257835323672,-0.00011103471069838288,-0.00015875135812121096,9.80025326819117,-4.6155707958200126e-10,5.33048478503724e-08,-4.989105560002626e-08,0.9999999999999973,0.0;0.0;0.0;0.0;0.0;0.0;0.0;0.0;0.0,7.621289842063561e-05;0.0;0.0;0.0;7.621289842063561e-05;0.0;0.0;0.0;7.621289842063561e-05,3.999999975690116e-08;0.0;0.0;0.0;3.999999975690116e-08;0.0;0.0;0.0;3.999999975690116e-08
22,40000000,22.04,imu_link,-0.0002989320433515235,0.006117632553087762,0.0032768223356751907,0.0002676710258608102,-5.407380740482791e-05,9.800175581071011,-4.6155707961557973e-10,5.330484785055675e-08,-4.989105560004222e-08,0.9999999999999973,0.0;0.0;0.0;0.0;0.0;0.0;0.0;0.0;0.0,7.621289842063561e-05;0.0;0.0;0.0;7.621289842063561e-05;0.0;0.0;0.0;7.621289842063561e-05,3.999999975690116e-08;0.0;0.0;0.0;3.999999975690116e-08;0.0;0.0;0.0;3.999999975690116e-08
22,60000000,22.06,imu_link,-0.006471010873877498,0.003293841326577951,-0.012784119197508149,0.0001764928963591555,-0.00037017590476914354,9.799751149233517,-4.6155707952747765e-10,5.3304847850677e-08,-4.9891055600058986e-08,0.9999999999999973,0.0;0.0;0.0;0.0;0.0;0.0;0.0;0.0;0.0,7.621289842063561e-05;0.0;0.0;0.0;7.621289842063561e-05;0.0;0.0;0.0;7.621289842063561e-05,3.999999975690116e-08;0.0;0.0;0.0;3.999999975690116e-08;0.0;0.0;0.0;3.999999975690116e-08
22,80000000,22.08,imu_link,0.017446250289772612,-0.003053730037636164,0.006371521036219168,1.53473804934726e-05,-2.744730379599827e-05,9.800043985182803,-4.6155707955921574e-10,5.330484785026999e-08,-4.989105560007483e-08,0.9999999999999973,0.0;0.0;0.0;0.0;0.0;0.0;0.0;0.0;0.0,7.621289842063561e-05;0.0;0.0;0.0;7.621289842063561e-05;0.0;0.0;0.0;7.621289842063561e-05,3.999999975690116e-08;0.0;0.0;0.0;3.999999975690116e-08;0.0;0.0;0.0;3.999999975690116e-08
22,100000000,22.1,imu_link,-0.009860649874038391,-0.0067514175239172525,-0.0038210017504139095,-0.0001161298297071781,-2.524804892083651e-05,9.799927656480854,-4.6155707948456585e-10,5.3304847850383016e-08,-4.989105560009297e-08,0.9999999999999973,0.0;0.0;0.0;0.0;0.0;0.0;0.0;0.0;0.0,7.621289842063561e-05;0.0;0.0;0.0;7.621289842063561e-05;0.0;0.0;0.0;7.621289842063561e-05,3.999999975690116e-08;0.0;0.0;0.0;3.999999975690116e-08;0.0;0.0;0.0;3.999999975690116e-08
22,120000000,22.12,imu_link,0.007669099497365437,0.016655692118055867,-5.880372750066025e-05,-7.043237728870594e-05,0.0002316028008160303,9.80004890072516,-4.6155707953147366e-10,5.3304847850557485e-08,-4.989105560010905e-08,0.9999999999999973,0.0;0.0;0.0;0.0;0.0;0.0;0.0;0.0;0.0,7.621289842063561e-05;0.0;0.0;0.0;7.621289842063561e-05;0.0;0.0;0.0;7.621289842063561e-05,3.999999975690116e-08;0.0;0.0;0.0;3.999999975690116e-08;0.0;0.0;0.0;3.999999975690116e-08
22,140000000,22.14,imu_link,0.0017044100857277896,-0.007694785060549564,-0.005236421403575164,0.0002979265781682655,-6.75909396993367e-05,9.800121477593011,-4.615570796776285e-10,5.330484785090533e-08,-4.9891055600127185e-08,0.9999999999999973,0.0;0.0;0.0;0.0;0.0;0.0;0.0;0.0;0.0,7.621289842063561e-05;0.0;0.0;0.0;7.621289842063561e-05;0.0;0.0;0.0;7.621289842063561e-05,3.999999975690116e-08;0.0;0.0;0.0;3.999999975690116e-08;0.0;0.0;0.0;3.999999975690116e-08
22,160000000,22.16,imu_link,-0.002815391019343645,-0.00834108587511625,0.0005478111995982459,0.0002233618431540257,-0.0003119963652839753,9.799784228138872,-4.6155707949935227e-10,5.3304847850389144e-08,-4.9891055600143696e-08,0.9999999999999973,0.0;0.0;0.0;0.0;0.0;0.0;0.0;0.0;0.0,7.621289842063561e-05;0.0;0.0;0.0;7.621289842063561e-05;0.0;0.0;0.0;7.621289842063561e-05,3.999999975690116e-08;0.0;0.0;0.0;3.999999975690116e-08;0.0;0.0;0.0;3.999999975690116e-08
22,180000000,22.18,imu_link,0.0008235394153701263,-0.0001607429576133447,-0.014536547130019945,-4.929516479227082e-06,-9.287686328207355e-06,9.800004224924876,-4.6155707953118197e-10,5.330484785056802e-08,-4.989105560015972e-08,0.9999999999999973,0.0;0.0;0.0;0.0;0.0;0.0;0.0;0.0;0.0,7.621289842063561e-05;0.0;0.0;0.0;7.621289842063561e-05;0.0;0.0;0.0;7.621289842063561e-05,3.999999975690116e-08;0.0;0.0;0.0;3.999999975690116e-08;0.0;0.0;0.0;3.999999975690116e-08
22,200000000,22.2,imu_link,-0.013147019152117039,0.00796559124438315,-0.016385014349256845,0.00015662051329090642,-0.0004167724913886589,9.799832678849262,-4.615570795535146e-10,5.330484785074956e-08,-4.989105560017724e-08,0.9999999999999973,0.0;0.0;0.0;0.0;0.0;0.0;0.0;0.0;0.0,7.621289842063561e-05;0.0;0.0;0.0;7.621289842063561e-05;0.0;0.0;0.0;7.621289842063561e-05,3.999999975690116e-08;0.0;0.0;0.0;3.999999975690116e-08;0.0;0.0;0.0;3.999999975690116e-08
22,220000000,22.22,imu_link,-0.004043717055727606,-0.00154021592600415,-0.0015864230284900402,0.0003986787194621023,-8.374440531870235e-05,9.800192252631229,-4.6155707958823086e-10,5.330484785034424e-08,-4.989105560019189e-08,0.9999999999999973,0.0;0.0;0.0;0.0;0.0;0.0;0.0;0.0;0.0,7.621289842063561e-05;0.0;0.0;0.0;7.621289842063561e-05;0.0;0.0;0.0;7.621289842063561e-05,3.999999975690116e-08;0.0;0.0;0.0;3.999999975690116e-08;0.0;0.0;0.0;3.999999975690116e-08
22,240000000,22.24,imu_link,0.006235143189928195,-0.0008997817091440519,0.0022216572471833135,0.00029406952550092136,-0.00020925398214051175,9.800207025747222,-4.61557079373272e-10,5.3304847850466786e-08,-4.9891055600207786e-08,0.9999999999999973,0.0;0.0;0.0;0.0;0.0;0.0;0.0;0.0;0.0,7.621289842063561e-05;0.0;0.0;0.0;7.621289842063561e-05;0.0;0.0;0.0;7.621289842063561e-05,3.999999975690116e-08;0.0;0.0;0.0;3.999999975690116e-08;0.0;0.0;0.0;3.999999975690116e-08
22,260000000,22.26,imu_link,-0.0017366999027657527,-0.007221895445370142,0.012812943809982238,9.459160153001824e-05,-9.350661193454887e-05,9.80005420882478,-4.615570795573423e-10,5.330484785063449e-08,-4.989105560022382e-08,0.9999999999999973,0.0;0.0;0.0;0.0;0.0;0.0;0.0;0.0;0.0,7.621289842063561e-05;0.0;0.0;0.0;7.621289842063561e-05;0.0;0.0;0.0;7.621289842063561e-05,3.999999975690116e-08;0.0;0.0;0.0;3.999999975690116e-08;0.0;0.0;0.0;3.999999975690116e-08
22,280000000,22.28,imu_link,-0.004437629097025758,-0.012866167102762808,-0.008858763937175598,0.0001428704021442989,-9.713574586528354e-05,9.800286622173338,-4.615570794521559e-10,5.330484785082765e-08,-4.9891055600239384e-08,0.9999999999999973,0.0;0.0;0.0;0.0;0.0;0.0;0.0;0.0;0.0,7.621289842063561e-05;0.0;0.0;0.0;7.621289842063561e-05;0.0;0.0;0.0;7.621289842063561e-05,3.999999975690116e-08;0.0;0.0;0.0;3.999999975690116e-08;0.0;0.0;0.0;3.999999975690116e-08
22,300000000,22.3,imu_link,2.9710754511859316e-06,-0.005990705753050623,0.009756311104902169,-2.878437850258656e-05,-3.794699824012731e-05,9.79974874789661,-4.6155707963038797e-10,5.330484785052891e-08,-4.9891055600255147e-08,0.9999999999999973,0.0;0.0;0.0;0.0;0.0;0.0;0.0;0.0;0.0,7.621289842063561e-05;0.0;0.0;0.0;7.621289842063561e-05;0.0;0.0;0.0;7.621289842063561e-05,3.999999975690116e-08;0.0;0.0;0.0;3.999999975690116e-08;0.0;0.0;0.0;3.999999975690116e-08
22,320000000,22.32,imu_link,-0.0009904324150654775,-0.005165538251898476,0.002063635276478789,0.0005338565575361421,-0.00020316278652931298,9.800627145192186,-4.6155707940807785e-10,5.3304847850532306e-08,-4.989105560027149e-08,0.9999999999999973,0.0;0.0;0.0;0.0;0.0;0.0;0.0;0.0;0.0,7.621289842063561e-05;0.0;0.0;0.0;7.621289842063561e-05;0.0;0.0;0.0;7.621289842063561e-05,3.999999975690116e-08;0.0;0.0;0.0;3.999999975690116e-08;0.0;0.0;0.0;3.999999975690116e-08
22,340000000,22.34,imu_link,0.006205821987103798,-0.0072570025784021875,-0.003464558924055894,7.126574109955953e-05,-0.00026362935652518994,9.800167259964581,-4.6155707968593713e-10,5.3304847850879517e-08,-4.9891055600289796e-08,0.9999999999999973,0.0;0.0;0.0;0.0;0.0;0.0;0.0;0.0;0.0,7.621289842063561e-05;0.0;0.0;0.0;7.621289842063561e-05;0.0;0.0;0.0;7.621289842063561e-05,3.999999975690116e-08;0.0;0.0;0.0;3.999999975690116e-08;0.0;0.0;0.0;3.999999975690116e-08
22,360000000,22.36,imu_link,-0.003379755624126684,-0.006176252907647469,-0.0060964073952656395,0.0004294127239140065,8.082558748505153e-05,9.800388611113801,-4.61557079490464e-10,5.330484785089524e-08,-4.9891055600307325e-08,0.9999999999999973,0.0;0.0;0.0;0.0;0.0;0.0;0.0;0.0;0.0,7.621289842063561e-05;0.0;0.0;0.0;7.621289842063561e-05;0.0;0.0;0.0;7.621289842063561e-05,3.999999975690116e-08;0.0;0.0;0.0;3.999999975690116e-08;0.0;0.0;0.0;3.999999975690116e-08
22,380000000,22.38,imu_link,0.0013985252903977298,0.004158033001970751,-0.015793900053973946,0.0003266179144942596,-0.0005280707240935079,9.800223845677385,-4.615570794082387e-10,5.330484785054629e-08,-4.9891055600325966e-08,0.9999999999999973,0.0;0.0;0.0;0.0;0.0;0.0;0.0;0.0;0.0,7.621289842063561e-05;0.0;0.0;0.0;7.621289842063561e-05;0.0;0.0;0.0;7.621289842063561e-05,3.999999975690116e-08;0.0;0.0;0.0;3.999999975690116e-08;0.0;0.0;0.0;3.999999975690116e-08
22,400000000,22.4,imu_link,0.005982061961186508,-0.003498840127963397,0.008084951409693094,3.277271747135982e-05,-2.9252364170639483e-05,9.80032838635822,-4.615570795768864e-10,5.330484785071723e-08,-4.98910556003431e-08,0.9999999999999973,0.0;0.0;0.0;0.0;0.0;0.0;0.0;0.0;0.0,7.621289842063561e-05;0.0;0.0;0.0;7.621289842063561e-05;0.0;0.0;0.0;7.621289842063561e-05,3.999999975690116e-08;0.0;0.0;0.0;3.999999975690116e-08;0.0;0.0;0.0;3.999999975690116e-08
22,420000000,22.42,imu_link,-0.003962673520496669,-0.009260919124164135,-0.0017969865303462831,0.0002239960432121078,-0.0001610655182899161,9.800233932339683,-4.6155707937129603e-10,5.330484785085137e-08,-4.989105560036332e-08,0.9999999999999973,0.0;0.0;0.0;0.0;0.0;0.0;0.0;0.0;0.0,7.621289842063561e-05;0.0;0.0;0.0;7.621289842063561e-05;0.0;0.0;0.0;7.621289842063561e-05,3.999999975690116e-08;0.0;0.0;0.0;3.999999975690116e-08;0.0;0.0;0.0;3.999999975690116e-08
22,440000000,22.44,imu_link,0.0017705763975474282,0.0030115466576570702,0.004815459271331366,0.0004540944674684422,6.256711537139619e-05,9.800005388518048,-4.615570794370548e-10,5.330484785038409e-08,-4.9891055600379965e-08,0.9999999999999973,0.0;0.0;0.0;0.0;0.0;0.0;0.0;0.0;0.0,7.621289842063561e-05;0.0;0.0;0.0;7.621289842063561e-05;0.0;0.0;0.0;7.621289842063561e-05,3.999999975690116e-08;0.0;0.0;0.0;3.999999975690116e-08;0.0;0.0;0.0;3.999999975690116e-08
22,460000000,22.46,imu_link,-0.013058582982527463,-0.0021690695245023322,0.012617435640097631,-0.00015350602907034713,-0.0003644005148276557,9.800265325309045,-4.6155707947286564e-10,5.330484785055747e-08,-4.9891055600398825e-08,0.9999999999999973,0.0;0.0;0.0;0.0;0.0;0.0;0.0;0.0;0.0,7.621289842063561e-05;0.0;0.0;0.0;7.621289842063561e-05;0.0;0.0;0.0;7.621289842063561e-05,3.999999975690116e-08;0.0;0.0;0.0;3.999999975690116e-08;0.0;0.0;0.0;3.999999975690116e-08
22,480000000,22.48,imu_link,0.004706288644925593,-0.017396068623058168,0.0071685658429429385,0.00019822806564010322,-0.00034171048623727316,9.80009766326748,-4.615570795189218e-10,5.33048478502712e-08,-4.9891055600416864e-08,0.9999999999999973,0.0;0.0;0.0;0.0;0.0;0.0;0.0;0.0;0.0,7.621289842063561e-05;0.0;0.0;0.0;7.621289842063561e-05;0.0;0.0;0.0;7.621289842063561e-05,3.999999975690116e-08;0.0;0.0;0.0;3.999999975690116e-08;0.0;0.0;0.0;3.999999975690116e-08
22,500000000,22.5,imu_link,0.0026045840174300883,-0.00800038225173705,-0.0058030899323903,0.00031207762392357645,-3.746818042093407e-05,9.800347861921864,-4.6155707943525565e-10,5.3304847850399434e-08,-4.989105560043272e-08,0.9999999999999973,0.0;0.0;0.0;0.0;0.0;0.0;0.0;0.0;0.0,7.621289842063561e-05;0.0;0.0;0.0;7.621289842063561e-05;0.0;0.0;0.0;7.621289842063561e-05,3.999999975690116e-08;0.0;0.0;0.0;3.999999975690116e-08;0.0;0.0;0.0;3.999999975690116e-08
22,520000000,22.52,imu_link,0.002796738870057312,-0.00042639378724201415,-0.010898840147352533,0.00018575622918476126,-3.474353716641206e-05,9.800459452202373,-4.615570793780228e-10,5.330484785053377e-08,-4.989105560045031e-08,0.9999999999999973,0.0;0.0;0.0;0.0;0.0;0.0;0.0;0.0;0.0,7.621289842063561e-05;0.0;0.0;0.0;7.621289842063561e-05;0.0;0.0;0.0;7.621289842063561e-05,3.999999975690116e-08;0.0;0.0;0.0;3.999999975690116e-08;0.0;0.0;0.0;3.999999975690116e-08
22,540000000,22.54,imu_link,-0.015216477225049898,0.0015307751773085104,-0.012432759540850033,-0.00016664830508333244,7.113298542336234e-05,9.800019403379958,-4.615570796631197e-10,5.330484785075972e-08,-4.989105560046767e-08,0.9999999999999973,0.0;0.0;0.0;0.0;0.0;0.0;0.0;0.0;0.0,7.621289842063561e-05;0.0;0.0;0.0;7.621289842063561e-05;0.0;0.0;0.0;7.621289842063561e-05,3.999999975690116e-08;0.0;0.0;0.0;3.999999975690116e-08;0.0;0.0;0.0;3.999999975690116e-08
22,560000000,22.56,imu_link,0.01124067442571735,0.005063528688577969,-0.00485760179352498,-0.0007038952698654139,-0.00036315285616810673,9.800183076723178,-4.6155707959819896e-10,5.330484785030488e-08,-4.989105560048399e-08,0.9999999999999973,0.0;0.0;0.0;0.0;0.0;0.0;0.0;0.0;0.0,7.621289842063561e-05;0.0;0.0;0.0;7.621289842063561e-05;0.0;0.0;0.0;7.621289842063561e-05,3.999999975690116e-08;0.0;0.0;0.0;3.999999975690116e-08;0.0;0.0;0.0;3.999999975690116e-08
22,580000000,22.58,imu_link,-0.006698318858074176,0.015340667560543976,-0.004715091238200146,0.00040444087185287196,0.0003029942308131912,9.800228963753828,-4.6155707951810047e-10,5.330484785043301e-08,-4.9891055600502176e-08,0.9999999999999973,0.0;0.0;0.0;0.0;0.0;0.0;0.0;0.0;0.0,7.621289842063561e-05;0.0;0.0;0.0;7.621289842063561e-05;0.0;0.0;0.0;7.621289842063561e-05,3.999999975690116e-08;0.0;0.0;0.0;3.999999975690116e-08;0.0;0.0;0.0;3.999999975690116e-08
22,600000000,22.6,imu_link,-0.006374636111786725,0.007119040590215757,-0.004779750940095537,0.00013827110299601572,-0.00038568819741268307,9.80021482467003,-4.6155707945086144e-10,5.330484785055428e-08,-4.9891055600519904e-08,0.9999999999999973,0.0;0.0;0.0;0.0;0.0;0.0;0.0;0.0;0.0,7.621289842063561e-05;0.0;0.0;0.0;7.621289842063561e-05;0.0;0.0;0.0;7.621289842063561e-05,3.999999975690116e-08;0.0;0.0;0.0;3.999999975690116e-08;0.0;0.0;0.0;3.999999975690116e-08
22,620000000,22.62,imu_link,0.005409580726797906,0.004005499890126181,-0.00014710518611524008,0.0003335992271518046,-0.0004060813038934547,9.800420863017989,-4.615570794787829e-10,5.3304847850262374e-08,-4.989105560053925e-08,0.9999999999999973,0.0;0.0;0.0;0.0;0.0;0.0;0.0;0.0;0.0,7.621289842063561e-05;0.0;0.0;0.0;7.621289842063561e-05;0.0;0.0;0.0;7.621289842063561e-05,3.999999975690116e-08;0.0;0.0;0.0;3.999999975690116e-08;0.0;0.0;0.0;3.999999975690116e-08
22,640000000,22.64,imu_link,-0.007423279666671358,0.015633444863845408,0.0077618158172473774,6.624322296098633e-05,-2.900192905375296e-05,9.800191800672089,-4.61557079609829e-10,5.330484785050113e-08,-4.9891055600555896e-08,0.9999999999999973,0.0;0.0;0.0;0.0;0.0;0.0;0.0;0.0;0.0,7.621289842063561e-05;0.0;0.0;0.0;7.621289842063561e-05;0.0;0.0;0.0;7.621289842063561e-05,3.999999975690116e-08;0.0;0.0;0.0;3.999999975690116e-08;0.0;0.0;0.0;3.999999975690116e-08
22,660000000,22.66,imu_link,-0.001328434802352952,-0.014274198854431935,-0.010044688343245145,0.0006537144243733673,-6.980947695439649e-05,9.800031873777122,-4.6155707942165747e-10,5.3304847850636094e-08,-4.989105560057547e-08,0.9999999999999973,0.0;0.0;0.0;0.0;0.0;0.0;0.0;0.0;0.0,7.621289842063561e-05;0.0;0.0;0.0;7.621289842063561e-05;0.0;0.0;0.0;7.621289842063561e-05,3.999999975690116e-08;0.0;0.0;0.0;3.999999975690116e-08;0.0;0.0;0.0;3.999999975690116e-08
22,680000000,22.68,imu_link,0.01268568382091166,0.010420241089430838,-0.003095706790772786,7.386990349527327e-05,-0.0006624593049312748,9.799921017318942,-4.6155707935490125e-10,5.330484785075379e-08,-4.989105560059427e-08,0.9999999999999973,0.0;0.0;0.0;0.0;0.0;0.0;0.0;0.0;0.0,7.621289842063561e-05;0.0;0.0;0.0;7.621289842063561e-05;0.0;0.0;0.0;7.621289842063561e-05,3.999999975690116e-08;0.0;0.0;0.0;3.999999975690116e-08;0.0;0.0;0.0;3.999999975690116e-08
22,700000000,22.7,imu_link,9.535404334141235e-05,-0.003987213030114581,-0.005759255336179434,0.00038554415672953303,-0.0003475422829325967,9.799916359336269,-4.615570794285612e-10,5.330484785029133e-08,-4.989105560061241e-08,0.9999999999999973,0.0;0.0;0.0;0.0;0.0;0.0;0.0;0.0;0.0,7.621289842063561e-05;0.0;0.0;0.0;7.621289842063561e-05;0.0;0.0;0.0;7.621289842063561e-05,3.999999975690116e-08;0.0;0.0;0.0;3.999999975690116e-08;0.0;0.0;0.0;3.999999975690116e-08
22,720000000,22.72,imu_link,-0.006021729264523479,-0.007660512670300189,-0.008297750887916415,0.00013710391382151173,-0.0003253976552689634,9.800212545491728,-4.615570794598276e-10,5.330484785047275e-08,-4.989105560063016e-08,0.9999999999999973,0.0;0.0;0.0;0.0;0.0;0.0;0.0;0.0;0.0,7.621289842063561e-05;0.0;0.0;0.0;7.621289842063561e-05;0.0;0.0;0.0;7.621289842063561e-05,3.999999975690116e-08;0.0;0.0;0.0;3.999999975690116e-08;0.0;0.0;0.0;3.999999975690116e-08
22,740000000,22.74,imu_link,0.0040386860387946165,0.004221687118726889,0.008404706717709964,0.0003449841171238437,-0.000388758337371136,9.79965597347706,-4.615570794535485e-10,5.33048478508377e-08,-4.9891055600647707e-08,0.9999999999999973,0.0;0.0;0.0;0.0;0.0;0.0;0.0;0.0;0.0,7.621289842063561e-05;0.0;0.0;0.0;7.621289842063561e-05;0.0;0.0;0.0;7.621289842063561e-05,3.999999975690116e-08;0.0;0.0;0.0;3.999999975690116e-08;0.0;0.0;0.0;3.999999975690116e-08
22,760000000,22.76,imu_link,0.004131706214985119,-0.00916021533793665,-0.004059183828939307,0.0004826067530725854,-0.0002102950377069289,9.799869072792314,-4.615570795373473e-10,5.3304847850373547e-08,-4.989105560066357e-08,0.9999999999999973,0.0;0.0;0.0;0.0;0.0;0.0;0.0;0.0;0.0,7.621289842063561e-05;0.0;0.0;0.0;7.621289842063561e-05;0.0;0.0;0.0;7.621289842063561e-05,3.999999975690116e-08;0.0;0.0;0.0;3.999999975690116e-08;0.0;0.0;0.0;3.999999975690116e-08
22,780000000,22.78,imu_link,0.004429495781618635,-0.004287962483412362,0.004377169693730844,-0.0001739890338074646,0.00013338248184378599,9.80007222637898,-4.6155707956884196e-10,5.3304847850556095e-08,-4.9891055600680516e-08,0.9999999999999973,0.0;0.0;0.0;0.0;0.0;0.0;0.0;0.0;0.0,7.621289842063561e-05;0.0;0.0;0.0;7.621289842063561e-05;0.0;0.0;0.0;7.621289842063561e-05,3.999999975690116e-08;0.0;0.0;0.0;3.999999975690116e-08;0.0;0.0;0.0;3.999999975690116e-08
22,800000000,22.8,imu_link,-0.0065772120895420325,0.0013884966234550284,0.013644818325641185,-0.0002684945006195256,3.5896764148509426e-05,9.80007172666408,-4.6155707959854126e-10,5.330484785072898e-08,-4.9891055600696835e-08,0.9999999999999973,0.0;0.0;0.0;0.0;0.0;0.0;0.0;0.0;0.0,7.621289842063561e-05;0.0;0.0;0.0;7.621289842063561e-05;0.0;0.0;0.0;7.621289842063561e-05,3.999999975690116e-08;0.0;0.0;0.0;3.999999975690116e-08;0.0;0.0;0.0;3.999999975690116e-08
22,820000000,22.82,imu_link,-0.011270896300795483,0.020582381138270822,-0.00580639479166384,1.1106722452660058e-05,-4.33811285761732e-06,9.80027571617952,-4.615570793855651e-10,5.330484785073821e-08,-4.9891055600713246e-08,0.9999999999999973,0.0;0.0;0.0;0.0;0.0;0.0;0.0;0.0;0.0,7.621289842063561e-05;0.0;0.0;0.0;7.621289842063561e-05;0.0;0.0;0.0;7.621289842063561e-05,3.999999975690116e-08;0.0;0.0;0.0;3.999999975690116e-08;0.0;0.0;0.0;3.999999975690116e-08
22,840000000,22.84,imu_link,0.0009714899839777791,-0.012479442520960258,0.00417891859523992,-0.0002900809894145897,0.00024262998460623534,9.80030574250563,-4.615570794319777e-10,5.330484785044982e-08,-4.9891055600729055e-08,0.9999999999999973,0.0;0.0;0.0;0.0;0.0;0.0;0.0;0.0;0.0,7.621289842063561e-05;0.0;0.0;0.0;7.621289842063561e-05;0.0;0.0;0.0;7.621289842063561e-05,3.999999975690116e-08;0.0;0.0;0.0;3.999999975690116e-08;0.0;0.0;0.0;3.999999975690116e-08
22,860000000,22.86,imu_link,0.019003224997460492,0.0015179677018965442,-0.002299535249196368,-0.00017945083189929852,0.00019740245702819597,9.800314032701976,-4.615570796022405e-10,5.3304847850619285e-08,-4.98910556007467e-08,0.9999999999999973,0.0;0.0;0.0;0.0;0.0;0.0;0.0;0.0;0.0,7.621289842063561e-05;0.0;0.0;0.0;7.621289842063561e-05;0.0;0.0;0.0;7.621289842063561e-05,3.999999975690116e-08;0.0;0.0;0.0;3.999999975690116e-08;0.0;0.0;0.0;3.999999975690116e-08
22,880000000,22.88,imu_link,-0.00022703080055223645,0.0062049641740003145,0.0043324609342008085,-0.00012613678679784102,-0.0007527180162900343,9.799886898919796,-4.6155707939482797e-10,5.330484785074479e-08,-4.989105560076307e-08,0.9999999999999973,0.0;0.0;0.0;0.0;0.0;0.0;0.0;0.0;0.0,7.621289842063561e-05;0.0;0.0;0.0;7.621289842063561e-05;0.0;0.0;0.0;7.621289842063561e-05,3.999999975690116e-08;0.0;0.0;0.0;3.999999975690116e-08;0.0;0.0;0.0;3.999999975690116e-08
22,900000000,22.9,imu_link,-0.0036917581858005475,0.008364111745304121,-0.02095684135708027,0.00010135727262549188,-0.0003818544066648992,9.800043927508224,-4.6155707943297625e-10,5.330484785045882e-08,-4.9891055600780446e-08,0.9999999999999973,0.0;0.0;0.0;0.0;0.0;0.0;0.0;0.0;0.0,7.621289842063561e-05;0.0;0.0;0.0;7.621289842063561e-05;0.0;0.0;0.0;7.621289842063561e-05,3.999999975690116e-08;0.0;0.0;0.0;3.999999975690116e-08;0.0;0.0;0.0;3.999999975690116e-08
22,920000000,22.92,imu_link,-0.004372121313826643,0.002167120364227533,-0.0032582653929995324,-0.00024464128726428265,0.0005210585880838982,9.800250506649583,-4.6155707948303257e-10,5.3304847850624626e-08,-4.9891055600797135e-08,0.9999999999999973,0.0;0.0;0.0;0.0;0.0;0.0;0.0;0.0;0.0,7.621289842063561e-05;0.0;0.0;0.0;7.621289842063561e-05;0.0;0.0;0.0;7.621289842063561e-05,3.999999975690116e-08;0.0;0.0;0.0;3.999999975690116e-08;0.0;0.0;0.0;3.999999975690116e-08
22,940000000,22.94,imu_link,-0.011951844508767894,0.015858245778663318,0.008351320618025383,0.00039724309115470274,3.1373265429080393e-05,9.800403515086186,-4.6155707940470906e-10,5.330484785074715e-08,-4.989105560081506e-08,0.9999999999999973,0.0;0.0;0.0;0.0;0.0;0.0;0.0;0.0;0.0,7.621289842063561e-05;0.0;0.0;0.0;7.621289842063561e-05;0.0;0.0;0.0;7.621289842063561e-05,3.999999975690116e-08;0.0;0.0;0.0;3.999999975690116e-08;0.0;0.0;0.0;3.999999975690116e-08
22,960000000,22.96,imu_link,-0.010938463105799665,-0.015331797103970948,0.012248549763599428,0.00015162176331893595,-7.110582107316977e-05,9.799951998068906,-4.615570794797452e-10,5.330484785027627e-08,-4.9891055600831625e-08,0.9999999999999973,0.0;0.0;0.0;0.0;0.0;0.0;0.0;0.0;0.0,7.621289842063561e-05;0.0;0.0;0.0;7.621289842063561e-05;0.0;0.0;0.0;7.621289842063561e-05,3.999999975690116e-08;0.0;0.0;0.0;3.999999975690116e-08;0.0;0.0;0.0;3.999999975690116e-08
22,980000000,22.98,imu_link,0.00879762908514653,0.0040329147829414064,-0.0032265283792699243,0.0002666082994186851,7.556139352415841e-05,9.799852936843847,-4.6155707950765965e-10,5.330484785043759e-08,-4.9891055600847825e-08,0.9999999999999973,0.0;0.0;0.0;0.0;0.0;0.0;0.0;0.0;0.0,7.621289842063561e-05;0.0;0.0;0.0;7.621289842063561e-05;0.0;0.0;0.0;7.621289842063561e-05,3.999999975690116e-08;0.0;0.0;0.0;3.999999975690116e-08;0.0;0.0;0.0;3.999999975690116e-08
23,0,23.0,imu_link,0.011351150450390542,0.0006746715595612601,-0.014191184605991301,0.00044918218159412777,0.0001589412841072935,9.799952001071196,-4.6155707954350795e-10,5.3304847850617175e-08,-4.989105560086459e-08,0.9999999999999973,0.0;0.0;0.0;0.0;0.0;0.0;0.0;0.0;0.0,7.621289842063561e-05;0.0;0.0;0.0;7.621289842063561e-05;0.0;0.0;0.0;7.621289842063561e-05,3.999999975690116e-08;0.0;0.0;0.0;3.999999975690116e-08;0.0;0.0;0.0;3.999999975690116e-08
23,20000000,23.02,imu_link,-0.004812654559567226,0.0053262006778675005,-0.013821495721795146,-0.00011004585790898819,-0.0002756109391583606,9.800096888532831,-4.6155707956262926e-10,5.330484785031896e-08,-4.989105560088002e-08,0.9999999999999973,0.0;0.0;0.0;0.0;0.0;0.0;0.0;0.0;0.0,7.621289842063561e-05;0.0;0.0;0.0;7.621289842063561e-05;0.0;0.0;0.0;7.621289842063561e-05,3.999999975690116e-08;0.0;0.0;0.0;3.999999975690116e-08;0.0;0.0;0.0;3.999999975690116e-08
23,40000000,23.04,imu_link,-0.00275960765327,0.0037619951289608405,-0.003236931760004412,-2.839987963490662e-05,0.0001822887097001614,9.800211711986492,-4.615570795982791e-10,5.330484785049049e-08,-4.989105560089519e-08,0.9999999999999973,0.0;0.0;0.0;0.0;0.0;0.0;0.0;0.0;0.0,7.621289842063561e-05;0.0;0.0;0.0;7.621289842063561e-05;0.0;0.0;0.0;7.621289842063561e-05,3.999999975690116e-08;0.0;0.0;0.0;3.999999975690116e-08;0.0;0.0;0.0;3.999999975690116e-08
23,60000000,23.06,imu_link,0.016409701652433304,-0.007250598713205606,-0.0033154851247669368,0.00017262793090378595,-0.00027826788935253553,9.800241003546233,-4.615570794048501e-10,5.330484785062351e-08,-4.9891055600911776e-08,0.9999999999999973,0.0;0.0;0.0;0.0;0.0;0.0;0.0;0.0;0.0,7.621289842063561e-05;0.0;0.0;0.0;7.621289842063561e-05;0.0;0.0;0.0;7.621289842063561e-05,3.999999975690116e-08;0.0;0.0;0.0;3.999999975690116e-08;0.0;0.0;0.0;3.999999975690116e-08
23,80000000,23.08,imu_link,-0.004909640342700008,-0.0075331425315427495,0.009230295822554784,-4.1623119963805184e-07,-0.00033591396226271755,9.800096285288225,-4.615570794478319e-10,5.330484785079546e-08,-4.9891055600929113e-08,0.9999999999999973,0.0;0.0;0.0;0.0;0.0;0.0;0.0;0.0;0.0,7.621289842063561e-05;0.0;0.0;0.0;7.621289842063561e-05;0.0;0.0;0.0;7.621289842063561e-05,3.999999975690116e-08;0.0;0.0;0.0;3.999999975690116e-08;0.0;0.0;0.0;3.999999975690116e-08
23,100000000,23.1,imu_link,-0.002165395607511749,-0.009083590492913669,-0.004286871272590452,-7.388003243061301e-05,2.4034691999192778e-05,9.80020801248406,-4.615570795235802e-10,5.3304847850316524e-08,-4.9891055600946034e-08,0.9999999999999973,0.0;0.0;0.0;0.0;0.0;0.0;0.0;0.0;0.0,7.621289842063561e-05;0.0;0.0;0.0;7.621289842063561e-05;0.0;0.0;0.0;7.621289842063561e-05,3.999999975690116e-08;0.0;0.0;0.0;3.999999975690116e-08;0.0;0.0;0.0;3.999999975690116e-08
23,120000000,23.12,imu_link,-0.013244407598908988,0.009628224134407188,0.008424883899720636,5.554405679881095e-05,-8.451837324272512e-05,9.800098989243985,-4.615570795623072e-10,5.3304847850490775e-08,-4.989105560096139e-08,0.9999999999999973,0.0;0.0;0.0;0.0;0.0;0.0;0.0;0.0;0.0,7.621289842063561e-05;0.0;0.0;0.0;7.621289842063561e-05;0.0;0.0;0.0;7.621289842063561e-05,3.999999975690116e-08;0.0;0.0;0.0;3.999999975690116e-08;0.0;0.0;0.0;3.999999975690116e-08
23,140000000,23.14,imu_link,0.007120831496590359,-0.006563573300650483,-0.005573429798185984,0.00015269186504252968,7.411164234705076e-05,9.800056178623802,-4.615570796086686e-10,5.330484785066425e-08,-4.9891055600979214e-08,0.9999999999999973,0.0;0.0;0.0;0.0;0.0;0.0;0.0;0.0;0.0,7.621289842063561e-05;0.0;0.0;0.0;7.621289842063561e-05;0.0;0.0;0.0;7.621289842063561e-05,3.999999975690116e-08;0.0;0.0;0.0;3.999999975690116e-08;0.0;0.0;0.0;3.999999975690116e-08
23,160000000,23.16,imu_link,-0.007621316392624489,-0.0026091903721777547,-0.00474718304044644,0.00011737777036343668,-0.0001575121324727906,9.799919892456227,-4.6155707940366717e-10,5.330484785032781e-08,-4.989105560099659e-08,0.9999999999999973,0.0;0.0;0.0;0.0;0.0;0.0;0.0;0.0;0.0,7.621289842063561e-05;0.0;0.0;0.0;7.621289842063561e-05;0.0;0.0;0.0;7.621289842063561e-05,3.999999975690116e-08;0.0;0.0;0.0;3.999999975690116e-08;0.0;0.0;0.0;3.999999975690116e-08
23,180000000,23.18,imu_link,-0.0029844893006509424,-0.005386870086884335,0.0017253499070482557,0.0003919972875248119,-0.00017008055983371045,9.7997951517266,-4.615570795868656e-10,5.330484785049648e-08,-4.989105560101269e-08,0.9999999999999973,0.0;0.0;0.0;0.0;0.0;0.0;0.0;0.0;0.0,7.621289842063561e-05;0.0;0.0;0.0;7.621289842063561e-05;0.0;0.0;0.0;7.621289842063561e-05,3.999999975690116e-08;0.0;0.0;0.0;3.999999975690116e-08;0.0;0.0;0.0;3.999999975690116e-08
23,200000000,23.2,imu_link,-0.015608633584219647,-0.005314863503575224,-0.004348109904221625,-0.00017596077481605796,0.0003904661856017982,9.799880604198131,-4.6155707937408285e-10,5.3304847850623395e-08,-4.989105560103031e-08,0.9999999999999973,0.0;0.0;0.0;0.0;0.0;0.0;0.0;0.0;0.0,7.621289842063561e-05;0.0;0.0;0.0;7.621289842063561e-05;0.0;0.0;0.0;7.621289842063561e-05,3.999999975690116e-08;0.0;0.0;0.0;3.999999975690116e-08;0.0;0.0;0.0;3.999999975690116e-08
23,220000000,23.22,imu_link,-0.004820120092114101,0.009541505306070031,0.004944104897325217,0.00023561343581169036,-0.00012259047921296684,9.800625263444369,-4.6155707941800764e-10,5.330484785079851e-08,-4.9891055601049114e-08,0.9999999999999973,0.0;0.0;0.0;0.0;0.0;0.0;0.0;0.0;0.0,7.621289842063561e-05;0.0;0.0;0.0;7.621289842063561e-05;0.0;0.0;0.0;7.621289842063561e-05,3.999999975690116e-08;0.0;0.0;0.0;3.999999975690116e-08;0.0;0.0;0.0;3.999999975690116e-08
23,240000000,23.24,imu_link,-0.0037314875819646504,-0.010900097838387577,0.00853742650440382,-4.909133299298644e-05,-0.00014244465126537847,9.800356870774488,-4.6155707959602647e-10,5.330484785049473e-08,-4.9891055601066604e-08,0.9999999999999973,0.0;0.0;0.0;0.0;0.0;0.0;0.0;0.0;0.0,7.621289842063561e-05;0.0;0.0;0.0;7.621289842063561e-05;0.0;0.0;0.0;7.621289842063561e-05,3.999999975690116e-08;0.0;0.0;0.0;3.999999975690116e-08;0.0;0.0;0.0;3.999999975690116e-08
23,260000000,23.26,imu_link,0.004771296377387687,-0.0064754175520892856,-0.006173585419847786,0.00021575460647882118,-6.758372493806679e-08,9.800047860187442,-4.615570796352328e-10,5.330484785067739e-08,-4.989105560108389e-08,0.9999999999999973,0.0;0.0;0.0;0.0;0.0;0.0;0.0;0.0;0.0,7.621289842063561e-05;0.0;0.0;0.0;7.621289842063561e-05;0.0;0.0;0.0;7.621289842063561e-05,3.999999975690116e-08;0.0;0.0;0.0;3.999999975690116e-08;0.0;0.0;0.0;3.999999975690116e-08
23,280000000,23.28,imu_link,0.0009660609919237704,0.000791746704076276,-0.001440032699257842,0.00018687086017058147,-4.630718387464961e-05,9.799907682830666,-4.61557079423749e-10,5.330484785068497e-08,-4.989105560110134e-08,0.9999999999999973,0.0;0.0;0.0;0.0;0.0;0.0;0.0;0.0;0.0,7.621289842063561e-05;0.0;0.0;0.0;7.621289842063561e-05;0.0;0.0;0.0;7.621289842063561e-05,3.999999975690116e-08;0.0;0.0;0.0;3.999999975690116e-08;0.0;0.0;0.0;3.999999975690116e-08
23,300000000,23.3,imu_link,-0.007993992748730463,0.006806508277584928,0.00735073569985831,0.00041794129268726295,-0.00016539609329735864,9.800258637586621,-4.615570797137579e-10,5.330484785091508e-08,-4.989105560111775e-08,0.9999999999999973,0.0;0.0;0.0;0.0;0.0;0.0;0.0;0.0;0.0,7.621289842063561e-05;0.0;0.0;0.0;7.621289842063561e-05;0.0;0.0;0.0;7.621289842063561e-05,3.999999975690116e-08;0.0;0.0;0.0;3.999999975690116e-08;0.0;0.0;0.0;3.999999975690116e-08
23,320000000,23.32,imu_link,0.0031188310373276356,0.005293648481042522,-0.009128746884611648,0.00023217580112838503,7.805092226432853e-05,9.800254757998259,-4.6155707940125346e-10,5.330484785041476e-08,-4.989105560113544e-08,0.9999999999999973,0.0;0.0;0.0;0.0;0.0;0.0;0.0;0.0;0.0,7.621289842063561e-05;0.0;0.0;0.0;7.621289842063561e-05;0.0;0.0;0.0;7.621289842063561e-05,3.999999975690116e-08;0.0;0.0;0.0;3.999999975690116e-08;0.0;0.0;0.0;3.999999975690116e-08
23,340000000,23.34,imu_link,0.0030949618583256833,0.002492795298727637,-0.00447017698243982,0.00017867636954865097,-0.0001208085042826247,9.800015255300353,-4.61557079437527e-10,5.3304847850606024e-08,-4.98910556011527e-08,0.9999999999999973,0.0;0.0;0.0;0.0;0.0;0.0;0.0;0.0;0.0,7.621289842063561e-05;0.0;0.0;0.0;7.621289842063561e-05;0.0;0.0;0.0;7.621289842063561e-05,3.999999975690116e-08;0.0;0.0;0.0;3.999999975690116e-08;0.0;0.0;0.0;3.999999975690116e-08
23,360000000,23.36,imu_link,-0.005862072946355386,-0.0029889076291990365,-0.0008712693970442144,0.0003221339041525489,-0.00017242450189745438,9.799997767932778,-4.61557079466065e-10,5.330484785032362e-08,-4.989105560117097e-08,0.9999999999999973,0.0;0.0;0.0;0.0;0.0;0.0;0.0;0.0;0.0,7.621289842063561e-05;0.0;0.0;0.0;7.621289842063561e-05;0.0;0.0;0.0;7.621289842063561e-05,3.999999975690116e-08;0.0;0.0;0.0;3.999999975690116e-08;0.0;0.0;0.0;3.999999975690116e-08
23,380000000,23.38,imu_link,0.015015300635527716,-0.009516739337085882,0.015007155756866081,-9.3494101933824e-05,-6.312879935739342e-05,9.799916588376586,-4.6155707939496275e-10,5.3304847850454776e-08,-4.989105560118782e-08,0.9999999999999973,0.0;0.0;0.0;0.0;0.0;0.0;0.0;0.0;0.0,7.621289842063561e-05;0.0;0.0;0.0;7.621289842063561e-05;0.0;0.0;0.0;7.621289842063561e-05,3.999999975690116e-08;0.0;0.0;0.0;3.999999975690116e-08;0.0;0.0;0.0;3.999999975690116e-08
23,400000000,23.4,imu_link,-0.00016437739704640745,0.004244789828694246,0.005116689408108894,0.00016326005532018133,0.0002065657416648868,9.799996103711198,-4.61557079560992e-10,5.330484785063222e-08,-4.9891055601205564e-08,0.9999999999999973,0.0;0.0;0.0;0.0;0.0;0.0;0.0;0.0;0.0,7.621289842063561e-05;0.0;0.0;0.0;7.621289842063561e-05;0.0;0.0;0.0;7.621289842063561e-05,3.999999975690116e-08;0.0;0.0;0.0;3.999999975690116e-08;0.0;0.0;0.0;3.999999975690116e-08
23,420000000,23.42,imu_link,-3.649666168660965e-05,0.0032480752250929846,-0.005405341229860494,1.3329005913739463e-05,1.2111533161642338e-06,9.800294972990384,-4.6155707970320214e-10,5.3304847850873064e-08,-4.9891055601222994e-08,0.9999999999999973,0.0;0.0;0.0;0.0;0.0;0.0;0.0;0.0;0.0,7.621289842063561e-05;0.0;0.0;0.0;7.621289842063561e-05;0.0;0.0;0.0;7.621289842063561e-05,3.999999975690116e-08;0.0;0.0;0.0;3.999999975690116e-08;0.0;0.0;0.0;3.999999975690116e-08
23,440000000,23.44,imu_link,0.005646928108700509,-0.014131002998220815,-0.011272347485615805,5.479927625527386e-05,-1.2908338799606065e-05,9.800041839232845,-4.6155707949234316e-10,5.3304847850897794e-08,-4.9891055601239756e-08,0.9999999999999973,0.0;0.0;0.0;0.0;0.0;0.0;0.0;0.0;0.0,7.621289842063561e-05;0.0;0.0;0.0;7.621289842063561e-05;0.0;0.0;0.0;7.621289842063561e-05,3.999999975690116e-08;0.0;0.0;0.0;3.999999975690116e-08;0.0;0.0;0.0;3.999999975690116e-08
23,460000000,23.46,imu_link,0.01662139427854905,0.015607741346627148,-0.01617749451595218,-0.00016230664648262598,-9.981291938615655e-05,9.80002630871738,-4.6155707941537524e-10,5.330484785055787e-08,-4.989105560125529e-08,0.9999999999999973,0.0;0.0;0.0;0.0;0.0;0.0;0.0;0.0;0.0,7.621289842063561e-05;0.0;0.0;0.0;7.621289842063561e-05;0.0;0.0;0.0;7.621289842063561e-05,3.999999975690116e-08;0.0;0.0;0.0;3.999999975690116e-08;0.0;0.0;0.0;3.999999975690116e-08
23,480000000,23.48,imu_link,-0.00024066108372658147,-0.007645035465798138,0.010169887838276093,0.0003023271555596024,-5.9435473165024824e-05,9.80020693558865,-4.6155707957840396e-10,5.330484785061506e-08,-4.989105560127424e-08,0.9999999999999973,0.0;0.0;0.0;0.0;0.0;0.0;0.0;0.0;0.0,7.621289842063561e-05;0.0;0.0;0.0;7.621289842063561e-05;0.0;0.0;0.0;7.621289842063561e-05,3.999999975690116e-08;0.0;0.0;0.0;3.999999975690116e-08;0.0;0.0;0.0;3.999999975690116e-08
23,500000000,23.5,imu_link,-0.013612228112623416,0.0033039694885578907,-0.004883175172473238,0.00013555964547021007,-0.0003196004066640334,9.799993303366893,-4.6155707951448337e-10,5.3304847850279883e-08,-4.9891055601293946e-08,0.9999999999999973,0.0;0.0;0.0;0.0;0.0;0.0;0.0;0.0;0.0,7.621289842063561e-05;0.0;0.0;0.0;7.621289842063561e-05;0.0;0.0;0.0;7.621289842063561e-05,3.999999975690116e-08;0.0;0.0;0.0;3.999999975690116e-08;0.0;0.0;0.0;3.999999975690116e-08
23,520000000,23.52,imu_link,0.004075907032806948,-0.004211974680661305,-5.28062876537221e-05,0.0004262898286700721,-0.00021449028662405385,9.800048410420956,-4.6155707955112287e-10,5.3304847850473483e-08,-4.989105560130989e-08,0.9999999999999973,0.0;0.0;0.0;0.0;0.0;0.0;0.0;0.0;0.0,7.621289842063561e-05;0.0;0.0;0.0;7.621289842063561e-05;0.0;0.0;0.0;7.621289842063561e-05,3.999999975690116e-08;0.0;0.0;0.0;3.999999975690116e-08;0.0;0.0;0.0;3.999999975690116e-08
23,540000000,23.54,imu_link,-0.0029028634909173965,2.1575197116166698e-05,0.008475570213361967,0.00017858686856024036,-0.00013937479190607492,9.799828977168175,-4.6155707958322094e-10,5.3304847850657184e-08,-4.9891055601327834e-08,0.9999999999999973,0.0;0.0;0.0;0.0;0.0;0.0;0.0;0.0;0.0,7.621289842063561e-05;0.0;0.0;0.0;7.621289842063561e-05;0.0;0.0;0.0;7.621289842063561e-05,3.999999975690116e-08;0.0;0.0;0.0;3.999999975690116e-08;0.0;0.0;0.0;3.999999975690116e-08
23,560000000,23.56,imu_link,0.00853975678263735,-0.005441579313649107,0.00854273416762056,0.00012896800519379266,2.1049106248276664e-05,9.800288247695871,-4.6155707937361187e-10,5.330484785033182e-08,-4.9891055601345966e-08,0.9999999999999973,0.0;0.0;0.0;0.0;0.0;0.0;0.0;0.0;0.0,7.621289842063561e-05;0.0;0.0;0.0;7.621289842063561e-05;0.0;0.0;0.0;7.621289842063561e-05,3.999999975690116e-08;0.0;0.0;0.0;3.999999975690116e-08;0.0;0.0;0.0;3.999999975690116e-08
23,580000000,23.58,imu_link,0.001153150609665364,-0.0009951138191411591,0.008233483847254069,-0.0001394922128864773,-4.739385038122544e-05,9.800265474442034,-4.615570794009064e-10,5.330484785050328e-08,-4.989105560136507e-08,0.9999999999999973,0.0;0.0;0.0;0.0;0.0;0.0;0.0;0.0;0.0,7.621289842063561e-05;0.0;0.0;0.0;7.621289842063561e-05;0.0;0.0;0.0;7.621289842063561e-05,3.999999975690116e-08;0.0;0.0;0.0;3.999999975690116e-08;0.0;0.0;0.0;3.999999975690116e-08
23,600000000,23.6,imu_link,-0.00013666666564571945,-0.003658770025490635,-0.0066331399793603,-0.000164655025149473,-0.00024514583629586567,9.800173488939514,-4.615570794279795e-10,5.330484785067921e-08,-4.98910556013833e-08,0.9999999999999973,0.0;0.0;0.0;0.0;0.0;0.0;0.0;0.0;0.0,7.621289842063561e-05;0.0;0.0;0.0;7.621289842063561e-05;0.0;0.0;0.0;7.621289842063561e-05,3.999999975690116e-08;0.0;0.0;0.0;3.999999975690116e-08;0.0;0.0;0.0;3.999999975690116e-08
23,620000000,23.62,imu_link,-0.004289643612475821,0.004329824775640229,0.0017424624419224088,9.157756497465409e-05,-0.00018992367842722118,9.800273458148457,-4.61557079463677e-10,5.330484785073682e-08,-4.989105560140148e-08,0.9999999999999973,0.0;0.0;0.0;0.0;0.0;0.0;0.0;0.0;0.0,7.621289842063561e-05;0.0;0.0;0.0;7.621289842063561e-05;0.0;0.0;0.0;7.621289842063561e-05,3.999999975690116e-08;0.0;0.0;0.0;3.999999975690116e-08;0.0;0.0;0.0;3.999999975690116e-08
23,640000000,23.64,imu_link,-0.009526543746051762,0.0005901111129974812,-0.019414759055106177,-0.00022416429656916967,0.0002745916957435609,9.800127273789412,-4.615570793745886e-10,5.330484785039663e-08,-4.989105560142065e-08,0.9999999999999973,0.0;0.0;0.0;0.0;0.0;0.0;0.0;0.0;0.0,7.621289842063561e-05;0.0;0.0;0.0;7.621289842063561e-05;0.0;0.0;0.0;7.621289842063561e-05,3.999999975690116e-08;0.0;0.0;0.0;3.999999975690116e-08;0.0;0.0;0.0;3.999999975690116e-08
23,660000000,23.66,imu_link,-0.0014557835821187707,0.0010633442189346598,-0.0052923516677603226,9.640655932651678e-05,-0.00022928524206359036,9.800371386563603,-4.6155707954935885e-10,5.3304847850443764e-08,-4.9891055601438094e-08,0.9999999999999973,0.0;0.0;0.0;0.0;0.0;0.0;0.0;0.0;0.0,7.621289842063561e-05;0.0;0.0;0.0;7.621289842063561e-05;0.0;0.0;0.0;7.621289842063561e-05,3.999999975690116e-08;0.0;0.0;0.0;3.999999975690116e-08;0.0;0.0;0.0;3.999999975690116e-08
23,680000000,23.68,imu_link,-0.0041308651644595745,-0.001996574344416368,-0.0030169955195353836,0.00013199158351541354,-0.0005031286319377918,9.799854623389303,-4.6155707943728364e-10,5.330484785076077e-08,-4.9891055601455736e-08,0.9999999999999973,0.0;0.0;0.0;0.0;0.0;0.0;0.0;0.0;0.0,7.621289842063561e-05;0.0;0.0;0.0;7.621289842063561e-05;0.0;0.0;0.0;7.621289842063561e-05,3.999999975690116e-08;0.0;0.0;0.0;3.999999975690116e-08;0.0;0.0;0.0;3.999999975690116e-08
23,700000000,23.7,imu_link,0.004459616993082147,-0.00042103118505905325,-0.01245669332628203,0.00030409468800592527,-0.00022668612492334218,9.800142958314513,-4.6155707960887745e-10,5.3304847850346415e-08,-4.9891055601473776e-08,0.9999999999999973,0.0;0.0;0.0;0.0;0.0;0.0;0.0;0.0;0.0,7.621289842063561e-05;0.0;0.0;0.0;7.621289842063561e-05;0.0;0.0;0.0;7.621289842063561e-05,3.999999975690116e-08;0.0;0.0;0.0;3.999999975690116e-08;0.0;0.0;0.0;3.999999975690116e-08
23,720000000,23.72,imu_link,0.002180509914076716,0.00855370429444505,-0.005783887250600544,0.0002624306816615086,0.00016069485381498455,9.800349658919174,-4.6155707953901367e-10,5.330484785048317e-08,-4.989105560149121e-08,0.9999999999999973,0.0;0.0;0.0;0.0;0.0;0.0;0.0;0.0;0.0,7.621289842063561e-05;0.0;0.0;0.0;7.621289842063561e-05;0.0;0.0;0.0;7.621289842063561e-05,3.999999975690116e-08;0.0;0.0;0.0;3.999999975690116e-08;0.0;0.0;0.0;3.999999975690116e-08
23,740000000,23.74,imu_link,0.0012548469731056716,0.0006378439382842833,0.014634049874667722,-0.0001203605180804304,-8.757462955781541e-05,9.800139739993098,-4.6155707944501266e-10,5.330484785067553e-08,-4.9891055601510046e-08,0.9999999999999973,0.0;0.0;0.0;0.0;0.0;0.0;0.0;0.0;0.0,7.621289842063561e-05;0.0;0.0;0.0;7.621289842063561e-05;0.0;0.0;0.0;7.621289842063561e-05,3.999999975690116e-08;0.0;0.0;0.0;3.999999975690116e-08;0.0;0.0;0.0;3.999999975690116e-08
23,760000000,23.76,imu_link,0.0055721591322390835,-0.010300061546191671,0.0035884441156527227,1.4420030978046992e-05,-0.00035483747987815614,9.799952464809857,-4.615570793670149e-10,5.3304847850789056e-08,-4.989105560153121e-08,0.9999999999999973,0.0;0.0;0.0;0.0;0.0;0.0;0.0;0.0;0.0,7.621289842063561e-05;0.0;0.0;0.0;7.621289842063561e-05;0.0;0.0;0.0;7.621289842063561e-05,3.999999975690116e-08;0.0;0.0;0.0;3.999999975690116e-08;0.0;0.0;0.0;3.999999975690116e-08
23,780000000,23.78,imu_link,-0.011156516811901556,-0.005324342941099108,0.017191902264441915,0.00011692645903386315,-0.00020011848442684746,9.799960573710083,-4.615570794472606e-10,5.330484785031803e-08,-4.9891055601551286e-08,0.9999999999999973,0.0;0.0;0.0;0.0;0.0;0.0;0.0;0.0;0.0,7.621289842063561e-05;0.0;0.0;0.0;7.621289842063561e-05;0.0;0.0;0.0;7.621289842063561e-05,3.999999975690116e-08;0.0;0.0;0.0;3.999999975690116e-08;0.0;0.0;0.0;3.999999975690116e-08
23,800000000,23.8,imu_link,-0.0011672299489495685,-0.0058658787475902585,-0.0070226692807263775,-0.00023298203105496097,0.00018992316037318873,9.800039299034134,-4.6155707947480326e-10,5.330484785049612e-08,-4.989105560157098e-08,0.9999999999999973,0.0;0.0;0.0;0.0;0.0;0.0;0.0;0.0;0.0,7.621289842063561e-05;0.0;0.0;0.0;7.621289842063561e-05;0.0;0.0;0.0;7.621289842063561e-05,3.999999975690116e-08;0.0;0.0;0.0;3.999999975690116e-08;0.0;0.0;0.0;3.999999975690116e-08
23,820000000,23.82,imu_link,0.00748483382803361,-0.0017207110310623478,0.002717779997797062,8.798651031738535e-06,-0.00021362875520897844,9.800091418247737,-4.6155707948194105e-10,5.3304847850864045e-08,-4.989105560158952e-08,0.9999999999999973,0.0;0.0;0.0;0.0;0.0;0.0;0.0;0.0;0.0,7.621289842063561e-05;0.0;0.0;0.0;7.621289842063561e-05;0.0;0.0;0.0;7.621289842063561e-05,3.999999975690116e-08;0.0;0.0;0.0;3.999999975690116e-08;0.0;0.0;0.0;3.999999975690116e-08
23,840000000,23.84,imu_link,-0.007495744581938651,-0.003936358783345583,0.0069956156601215244,9.893355553522126e-05,-0.0001373571894295229,9.800153087887507,-4.6155707955812164e-10,5.330484785039091e-08,-4.989105560161085e-08,0.9999999999999973,0.0;0.0;0.0;0.0;0.0;0.0;0.0;0.0;0.0,7.621289842063561e-05;0.0;0.0;0.0;7.621289842063561e-05;0.0;0.0;0.0;7.621289842063561e-05,3.999999975690116e-08;0.0;0.0;0.0;3.999999975690116e-08;0.0;0.0;0.0;3.999999975690116e-08
23,860000000,23.86,imu_link,-0.0008941946683700903,-0.00498053536822638,0.005017180027627838,-1.758314091133853e-05,5.404585198646951e-06,9.7998825746805,-4.6155707959745506e-10,5.330484785056599e-08,-4.9891055601630556e-08,0.9999999999999973,0.0;0.0;0.0;0.0;0.0;0.0;0.0;0.0;0.0,7.621289842063561e-05;0.0;0.0;0.0;7.621289842063561e-05;0.0;0.0;0.0;7.621289842063561e-05,3.999999975690116e-08;0.0;0.0;0.0;3.999999975690116e-08;0.0;0.0;0.0;3.999999975690116e-08
23,880000000,23.88,imu_link,0.015283804586159515,0.0007002478520144088,0.004693608341802636,0.0002577114257742837,-0.00013581265559751344,9.800053450201892,-4.6155707938600505e-10,5.330484785070582e-08,-4.9891055601648946e-08,0.9999999999999973,0.0;0.0;0.0;0.0;0.0;0.0;0.0;0.0;0.0,7.621289842063561e-05;0.0;0.0;0.0;7.621289842063561e-05;0.0;0.0;0.0;7.621289842063561e-05,3.999999975690116e-08;0.0;0.0;0.0;3.999999975690116e-08;0.0;0.0;0.0;3.999999975690116e-08
23,900000000,23.9,imu_link,0.011403556749383677,-0.000378944946812608,0.0027427391060770045,0.00021376754134404009,-0.0008671350821293473,9.799980652333815,-4.6155707943411057e-10,5.330484785087979e-08,-4.98910556016681e-08,0.9999999999999973,0.0;0.0;0.0;0.0;0.0;0.0;0.0;0.0;0.0,7.621289842063561e-05;0.0;0.0;0.0;7.621289842063561e-05;0.0;0.0;0.0;7.621289842063561e-05,3.999999975690116e-08;0.0;0.0;0.0;3.999999975690116e-08;0.0;0.0;0.0;3.999999975690116e-08
23,920000000,23.92,imu_link,-0.0032297616224047122,-0.013703306340322659,0.00022902823823368017,0.00024240317428357534,-0.0004574942520644477,9.799721016304396,-4.615570794983612e-10,5.330484785041156e-08,-4.989105560168588e-08,0.9999999999999973,0.0;0.0;0.0;0.0;0.0;0.0;0.0;0.0;0.0,7.621289842063561e-05;0.0;0.0;0.0;7.621289842063561e-05;0.0;0.0;0.0;7.621289842063561e-05,3.999999975690116e-08;0.0;0.0;0.0;3.999999975690116e-08;0.0;0.0;0.0;3.999999975690116e-08
23,940000000,23.94,imu_link,-0.003151928141874173,-0.013103129310891089,0.01851693219742768,0.00015402208066308553,0.00012846745854600905,9.800418944368626,-4.6155707954488257e-10,5.3304847850584617e-08,-4.9891055601706074e-08,0.9999999999999973,0.0;0.0;0.0;0.0;0.0;0.0;0.0;0.0;0.0,7.621289842063561e-05;0.0;0.0;0.0;7.621289842063561e-05;0.0;0.0;0.0;7.621289842063561e-05,3.999999975690116e-08;0.0;0.0;0.0;3.999999975690116e-08;0.0;0.0;0.0;3.999999975690116e-08
23,960000000,23.96,imu_link,0.0039316905690909764,0.0032195739678389933,-0.004094467040245049,0.00017912366817352817,-0.0002805537953139634,9.800308982534268,-4.6155707958832945e-10,5.330484785030175e-08,-4.989105560172255e-08,0.9999999999999973,0.0;0.0;0.0;0.0;0.0;0.0;0.0;0.0;0.0,7.621289842063561e-05;0.0;0.0;0.0;7.621289842063561e-05;0.0;0.0;0.0;7.621289842063561e-05,3.999999975690116e-08;0.0;0.0;0.0;3.999999975690116e-08;0.0;0.0;0.0;3.999999975690116e-08
23,980000000,23.98,imu_link,0.004516959674810036,4.557305627589805e-05,-0.0068338774381821975,0.0005088025395929491,0.00036919633263383803,9.800135231752568,-4.6155707952214384e-10,5.330484785042378e-08,-4.989105560174176e-08,0.9999999999999973,0.0;0.0;0.0;0.0;0.0;0.0;0.0;0.0;0.0,7.621289842063561e-05;0.0;0.0;0.0;7.621289842063561e-05;0.0;0.0;0.0;7.621289842063561e-05,3.999999975690116e-08;0.0;0.0;0.0;3.999999975690116e-08;0.0;0.0;0.0;3.999999975690116e-08
24,0,24.0,imu_link,-0.004087245495692905,0.005212434502266974,0.0128514103440628,0.00020995850276166184,-0.0003831883231053964,9.799840069196925,-4.615570795702412e-10,5.330484785060296e-08,-4.989105560175994e-08,0.9999999999999973,0.0;0.0;0.0;0.0;0.0;0.0;0.0;0.0;0.0,7.621289842063561e-05;0.0;0.0;0.0;7.621289842063561e-05;0.0;0.0;0.0;7.621289842063561e-05,3.999999975690116e-08;0.0;0.0;0.0;3.999999975690116e-08;0.0;0.0;0.0;3.999999975690116e-08
24,20000000,24.02,imu_link,-0.012124809276475294,0.00437731352813419,-0.012058562372125495,0.00010051166148364114,-0.0001144793986516492,9.800178278106795,-4.6155707934398945e-10,5.3304847850731246e-08,-4.9891055601777086e-08,0.9999999999999973,0.0;0.0;0.0;0.0;0.0;0.0;0.0;0.0;0.0,7.621289842063561e-05;0.0;0.0;0.0;7.621289842063561e-05;0.0;0.0;0.0;7.621289842063561e-05,3.999999975690116e-08;0.0;0.0;0.0;3.999999975690116e-08;0.0;0.0;0.0;3.999999975690116e-08
24,40000000,24.04,imu_link,0.003864992064167935,-0.009378963059725277,0.0021660182367711643,0.0004972666355933999,-1.2828482263098725e-05,9.79996212453942,-4.615570793897094e-10,5.330484785045525e-08,-4.989105560179439e-08,0.9999999999999973,0.0;0.0;0.0;0.0;0.0;0.0;0.0;0.0;0.0,7.621289842063561e-05;0.0;0.0;0.0;7.621289842063561e-05;0.0;0.0;0.0;7.621289842063561e-05,3.999999975690116e-08;0.0;0.0;0.0;3.999999975690116e-08;0.0;0.0;0.0;3.999999975690116e-08
24,60000000,24.06,imu_link,-0.002131283344400188,0.0029526316498329915,0.0032013748365425647,0.00017710018764372523,-3.96106245501949e-05,9.799536120021767,-4.615570794302169e-10,5.330484785063032e-08,-4.9891055601812284e-08,0.9999999999999973,0.0;0.0;0.0;0.0;0.0;0.0;0.0;0.0;0.0,7.621289842063561e-05;0.0;0.0;0.0;7.621289842063561e-05;0.0;0.0;0.0;7.621289842063561e-05,3.999999975690116e-08;0.0;0.0;0.0;3.999999975690116e-08;0.0;0.0;0.0;3.999999975690116e-08
24,80000000,24.08,imu_link,-0.008481525219504179,-0.009116554841514994,-0.014102743652470152,5.444295452956304e-05,-0.00021692942539765052,9.799980076496228,-4.615570796078247e-10,5.33048478506771e-08,-4.989105560183206e-08,0.9999999999999973,0.0;0.0;0.0;0.0;0.0;0.0;0.0;0.0;0.0,7.621289842063561e-05;0.0;0.0;0.0;7.621289842063561e-05;0.0;0.0;0.0;7.621289842063561e-05,3.999999975690116e-08;0.0;0.0;0.0;3.999999975690116e-08;0.0;0.0;0.0;3.999999975690116e-08
24,100000000,24.1,imu_link,0.006949358609862771,0.0031961283939405715,-0.010162944616721958,-0.00010397669009806513,-0.0001525345552877417,9.800046150824377,-4.615570794033844e-10,5.330484785035666e-08,-4.989105560184942e-08,0.9999999999999973,0.0;0.0;0.0;0.0;0.0;0.0;0.0;0.0;0.0,7.621289842063561e-05;0.0;0.0;0.0;7.621289842063561e-05;0.0;0.0;0.0;7.621289842063561e-05,3.999999975690116e-08;0.0;0.0;0.0;3.999999975690116e-08;0.0;0.0;0.0;3.999999975690116e-08
24,120000000,24.12,imu_link,-0.0020654075749650886,-0.0024279182148074,-0.003724988054077048,0.00010932904345638414,0.00021062162792932605,9.800189520213534,-4.615570795776959e-10,5.3304847850523346e-08,-4.989105560186797e-08,0.9999999999999973,0.0;0.0;0.0;0.0;0.0;0.0;0.0;0.0;0.0,7.621289842063561e-05;0.0;0.0;0.0;7.621289842063561e-05;0.0;0.0;0.0;7.621289842063561e-05,3.999999975690116e-08;0.0;0.0;0.0;3.999999975690116e-08;0.0;0.0;0.0;3.999999975690116e-08
24,140000000,24.14,imu_link,0.006431499589359669,0.0038963720687592604,0.002009738076266059,0.0002858257872889886,-0.0001859872276526472,9.79996638420278,-4.6155707936813035e-10,5.330484785053683e-08,-4.989105560188646e-08,0.9999999999999973,0.0;0.0;0.0;0.0;0.0;0.0;0.0;0.0;0.0,7.621289842063561e-05;0.0;0.0;0.0;7.621289842063561e-05;0.0;0.0;0.0;7.621289842063561e-05,3.999999975690116e-08;0.0;0.0;0.0;3.999999975690116e-08;0.0;0.0;0.0;3.999999975690116e-08
24,160000000,24.16,imu_link,-0.005027738631262218,-0.0022139246651806796,-0.004391945722052482,0.00018152883363940547,2.052259479582703e-05,9.800278080553266,-4.6155707940993425e-10,5.3304847850723656e-08,-4.9891055601907066e-08,0.9999999999999973,0.0;0.0;0.0;0.0;0.0;0.0;0.0;0.0;0.0,7.621289842063561e-05;0.0;0.0;0.0;7.621289842063561e-05;0.0;0.0;0.0;7.621289842063561e-05,3.999999975690116e-08;0.0;0.0;0.0;3.999999975690116e-08;0.0;0.0;0.0;3.999999975690116e-08
24,180000000,24.18,imu_link,-0.004036141784911295,0.016291696487978718,-0.007933663852395923,0.00020503396054538198,-6.11514670424965e-05,9.80011090695993,-4.615570794785085e-10,5.33048478503756e-08,-4.9891055601927944e-08,0.9999999999999973,0.0;0.0;0.0;0.0;0.0;0.0;0.0;0.0;0.0,7.621289842063561e-05;0.0;0.0;0.0;7.621289842063561e-05;0.0;0.0;0.0;7.621289842063561e-05,3.999999975690116e-08;0.0;0.0;0.0;3.999999975690116e-08;0.0;0.0;0.0;3.999999975690116e-08
24,200000000,24.2,imu_link,-0.003432260358446004,0.004670876637434435,0.026199172871668768,-3.518227886386287e-05,-0.0004934312300847981,9.80016595138444,-4.6155707952122613e-10,5.33048478505511e-08,-4.989105560194684e-08,0.9999999999999973,0.0;0.0;0.0;0.0;0.0;0.0;0.0;0.0;0.0,7.621289842063561e-05;0.0;0.0;0.0;7.621289842063561e-05;0.0;0.0;0.0;7.621289842063561e-05,3.999999975690116e-08;0.0;0.0;0.0;3.999999975690116e-08;0.0;0.0;0.0;3.999999975690116e-08
24,220000000,24.22,imu_link,-0.002878259489330699,0.010946486519202624,0.014981154473798865,0.0003030657349199961,-0.0001153979551674491,9.79997439484723,-4.6155707956429536e-10,5.330484785026975e-08,-4.989105560196592e-08,0.9999999999999973,0.0;0.0;0.0;0.0;0.0;0.0;0.0;0.0;0.0,7.621289842063561e-05;0.0;0.0;0.0;7.621289842063561e-05;0.0;0.0;0.0;7.621289842063561e-05,3.999999975690116e-08;0.0;0.0;0.0;3.999999975690116e-08;0.0;0.0;0.0;3.999999975690116e-08
24,240000000,24.24,imu_link,0.0006348689749422312,-0.0008222371888936711,-0.012760880106412504,-2.822353229397721e-05,-0.00022265590621510148,9.800463300688152,-4.615570795937595e-10,5.3304847850444545e-08,-4.98910556019855e-08,0.9999999999999973,0.0;0.0;0.0;0.0;0.0;0.0;0.0;0.0;0.0,7.621289842063561e-05;0.0;0.0;0.0;7.621289842063561e-05;0.0;0.0;0.0;7.621289842063561e-05,3.999999975690116e-08;0.0;0.0;0.0;3.999999975690116e-08;0.0;0.0;0.0;3.999999975690116e-08
24,260000000,24.26,imu_link,0.00893496258039246,-0.014383155120602849,-0.01006188857884022,0.0001922869353584979,7.150744638455321e-05,9.799988680050143,-4.6155707938066493e-10,5.3304847850579495e-08,-4.989105560200666e-08,0.9999999999999973,0.0;0.0;0.0;0.0;0.0;0.0;0.0;0.0;0.0,7.621289842063561e-05;0.0;0.0;0.0;7.621289842063561e-05;0.0;0.0;0.0;7.621289842063561e-05,3.999999975690116e-08;0.0;0.0;0.0;3.999999975690116e-08;0.0;0.0;0.0;3.999999975690116e-08
24,280000000,24.28,imu_link,0.004970238252577996,-0.0167403003729252,0.006116167930522749,0.00032168807250390906,4.446351628039963e-08,9.800117483969585,-4.615570794300673e-10,5.3304847850763135e-08,-4.9891055602026954e-08,0.9999999999999973,0.0;0.0;0.0;0.0;0.0;0.0;0.0;0.0;0.0,7.621289842063561e-05;0.0;0.0;0.0;7.621289842063561e-05;0.0;0.0;0.0;7.621289842063561e-05,3.999999975690116e-08;0.0;0.0;0.0;3.999999975690116e-08;0.0;0.0;0.0;3.999999975690116e-08
24,300000000,24.3,imu_link,0.013334238470452123,0.0033135835419078647,-0.00465077856937297,0.0001912088977872991,-7.605251019005116e-05,9.800219839679116,-4.6155707949253273e-10,5.3304847850288294e-08,-4.9891055602048256e-08,0.9999999999999973,0.0;0.0;0.0;0.0;0.0;0.0;0.0;0.0;0.0,7.621289842063561e-05;0.0;0.0;0.0;7.621289842063561e-05;0.0;0.0;0.0;7.621289842063561e-05,3.999999975690116e-08;0.0;0.0;0.0;3.999999975690116e-08;0.0;0.0;0.0;3.999999975690116e-08
24,320000000,24.32,imu_link,-0.00915370896910977,-0.004749534185536034,-0.013531337099080727,-5.5008729349051585e-06,-9.055545600377332e-05,9.799751086398862,-4.6155707953299066e-10,5.3304847850466456e-08,-4.989105560206954e-08,0.9999999999999973,0.0;0.0;0.0;0.0;0.0;0.0;0.0;0.0;0.0,7.621289842063561e-05;0.0;0.0;0.0;7.621289842063561e-05;0.0;0.0;0.0;7.621289842063561e-05,3.999999975690116e-08;0.0;0.0;0.0;3.999999975690116e-08;0.0;0.0;0.0;3.999999975690116e-08
24,340000000,24.34,imu_link,-0.0019741479900066525,-0.005738086900521137,0.004286363609745935,2.9604354178970437e-05,-9.699110921486792e-05,9.800172302597877,-4.6155707957118153e-10,5.3304847850641884e-08,-4.989105560209004e-08,0.9999999999999973,0.0;0.0;0.0;0.0;0.0;0.0;0.0;0.0;0.0,7.621289842063561e-05;0.0;0.0;0.0;7.621289842063561e-05;0.0;0.0;0.0;7.621289842063561e-05,3.999999975690116e-08;0.0;0.0;0.0;3.999999975690116e-08;0.0;0.0;0.0;3.999999975690116e-08
24,360000000,24.36,imu_link,-0.015712692220324623,0.0023542339353075283,-0.0019784205036838683,0.00023652906135162883,0.00018638248596468962,9.799899906654012,-4.6155707947871225e-10,5.330484785083476e-08,-4.989105560210966e-08,0.9999999999999973,0.0;0.0;0.0;0.0;0.0;0.0;0.0;0.0;0.0,7.621289842063561e-05;0.0;0.0;0.0;7.621289842063561e-05;0.0;0.0;0.0;7.621289842063561e-05,3.999999975690116e-08;0.0;0.0;0.0;3.999999975690116e-08;0.0;0.0;0.0;3.999999975690116e-08
24,380000000,24.38,imu_link,-0.007310909487939528,-0.002780432594221302,0.013319393856285862,0.0001558003529659998,-1.5398309805838336e-05,9.80009176932843,-4.615570793977992e-10,5.330484785048949e-08,-4.9891055602131285e-08,0.9999999999999973,0.0;0.0;0.0;0.0;0.0;0.0;0.0;0.0;0.0,7.621289842063561e-05;0.0;0.0;0.0;7.621289842063561e-05;0.0;0.0;0.0;7.621289842063561e-05,3.999999975690116e-08;0.0;0.0;0.0;3.999999975690116e-08;0.0;0.0;0.0;3.999999975690116e-08
24,400000000,24.4,imu_link,-0.008796381730582085,0.004782753538101341,-0.006771395673075284,-5.136183295160713e-05,-0.00019045791980348056,9.800377384515258,-4.61557079565161e-10,5.3304847850660625e-08,-4.989105560215405e-08,0.9999999999999973,0.0;0.0;0.0;0.0;0.0;0.0;0.0;0.0;0.0,7.621289842063561e-05;0.0;0.0;0.0;7.621289842063561e-05;0.0;0.0;0.0;7.621289842063561e-05,3.999999975690116e-08;0.0;0.0;0.0;3.999999975690116e-08;0.0;0.0;0.0;3.999999975690116e-08
24,420000000,24.42,imu_link,0.009599453364596128,0.013652996510724134,0.008783865229075118,-4.027659507722359e-05,-0.00020461552911777583,9.800066641189046,-4.6155707970272745e-10,5.3304847850895173e-08,-4.989105560217517e-08,0.9999999999999973,0.0;0.0;0.0;0.0;0.0;0.0;0.0;0.0;0.0,7.621289842063561e-05;0.0;0.0;0.0;7.621289842063561e-05;0.0;0.0;0.0;7.621289842063561e-05,3.999999975690116e-08;0.0;0.0;0.0;3.999999975690116e-08;0.0;0.0;0.0;3.999999975690116e-08
24,440000000,24.44,imu_link,0.016865840693751463,0.014050867056808018,0.0035603569275252356,4.814616011718618e-05,-0.00039218848598104124,9.799827069196388,-4.615570795306463e-10,5.3304847850378205e-08,-4.989105560219548e-08,0.9999999999999973,0.0;0.0;0.0;0.0;0.0;0.0;0.0;0.0;0.0,7.621289842063561e-05;0.0;0.0;0.0;7.621289842063561e-05;0.0;0.0;0.0;7.621289842063561e-05,3.999999975690116e-08;0.0;0.0;0.0;3.999999975690116e-08;0.0;0.0;0.0;3.999999975690116e-08
24,460000000,24.46,imu_link,0.0009723949961390632,0.009233046610010535,0.0016942813114572582,1.8279812793026994e-05,-0.00017003256273484437,9.799869216538443,-4.6155707956736823e-10,5.3304847850568014e-08,-4.98910556022173e-08,0.9999999999999973,0.0;0.0;0.0;0.0;0.0;0.0;0.0;0.0;0.0,7.621289842063561e-05;0.0;0.0;0.0;7.621289842063561e-05;0.0;0.0;0.0;7.621289842063561e-05,3.999999975690116e-08;0.0;0.0;0.0;3.999999975690116e-08;0.0;0.0;0.0;3.999999975690116e-08
24,480000000,24.48,imu_link,-0.0075162640485068235,-0.010763010430627593,0.010870533371657026,0.0001973701128501321,0.00044207477935716315,9.799950474569739,-4.615570796099492e-10,5.3304847850749484e-08,-4.989105560223784e-08,0.9999999999999973,0.0;0.0;0.0;0.0;0.0;0.0;0.0;0.0;0.0,7.621289842063561e-05;0.0;0.0;0.0;7.621289842063561e-05;0.0;0.0;0.0;7.621289842063561e-05,3.999999975690116e-08;0.0;0.0;0.0;3.999999975690116e-08;0.0;0.0;0.0;3.999999975690116e-08
24,500000000,24.5,imu_link,0.0028226997795215624,0.0011004131043809877,-0.0004940082414817845,0.0001922213410591197,-0.00021101707129926521,9.800243657498287,-4.6155707940823233e-10,5.330484785087748e-08,-4.989105560225934e-08,0.9999999999999973,0.0;0.0;0.0;0.0;0.0;0.0;0.0;0.0;0.0,7.621289842063561e-05;0.0;0.0;0.0;7.621289842063561e-05;0.0;0.0;0.0;7.621289842063561e-05,3.999999975690116e-08;0.0;0.0;0.0;3.999999975690116e-08;0.0;0.0;0.0;3.999999975690116e-08
24,520000000,24.52,imu_link,-0.003545401019118664,-0.002135494084271605,0.004581896993395902,0.00019648128062634167,-0.00037883655317126565,9.79989089367214,-4.615570794700766e-10,5.330484785039968e-08,-4.989105560227873e-08,0.9999999999999973,0.0;0.0;0.0;0.0;0.0;0.0;0.0;0.0;0.0,7.621289842063561e-05;0.0;0.0;0.0;7.621289842063561e-05;0.0;0.0;0.0;7.621289842063561e-05,3.999999975690116e-08;0.0;0.0;0.0;3.999999975690116e-08;0.0;0.0;0.0;3.999999975690116e-08
24,540000000,24.54,imu_link,-0.010798011575964515,0.021038553250658527,-0.012841004742923897,0.00019181741474673405,-0.00014669223026838853,9.799933868053827,-4.615570794798311e-10,5.330484785075273e-08,-4.9891055602299606e-08,0.9999999999999973,0.0;0.0;0.0;0.0;0.0;0.0;0.0;0.0;0.0,7.621289842063561e-05;0.0;0.0;0.0;7.621289842063561e-05;0.0;0.0;0.0;7.621289842063561e-05,3.999999975690116e-08;0.0;0.0;0.0;3.999999975690116e-08;0.0;0.0;0.0;3.999999975690116e-08
24,560000000,24.56,imu_link,-0.0050815454529429364,-0.0008856566471243018,0.008040930794314626,-6.359430284261153e-05,-7.974590525703667e-05,9.800064794502996,-4.6155707939917067e-10,5.330484785029833e-08,-4.989105560231812e-08,0.9999999999999973,0.0;0.0;0.0;0.0;0.0;0.0;0.0;0.0;0.0,7.621289842063561e-05;0.0;0.0;0.0;7.621289842063561e-05;0.0;0.0;0.0;7.621289842063561e-05,3.999999975690116e-08;0.0;0.0;0.0;3.999999975690116e-08;0.0;0.0;0.0;3.999999975690116e-08
24,580000000,24.58,imu_link,0.0033940785698039614,0.001967317076355606,0.006814487528091036,0.00015614227069308696,-0.0003412530239400935,9.800276170905706,-4.6155707957984387e-10,5.330484785045772e-08,-4.98910556023397e-08,0.9999999999999973,0.0;0.0;0.0;0.0;0.0;0.0;0.0;0.0;0.0,7.621289842063561e-05;0.0;0.0;0.0;7.621289842063561e-05;0.0;0.0;0.0;7.621289842063561e-05,3.999999975690116e-08;0.0;0.0;0.0;3.999999975690116e-08;0.0;0.0;0.0;3.999999975690116e-08
24,600000000,24.6,imu_link,0.0015453563595753412,0.010430525377891353,-0.008511507619264233,0.0004904475851192865,-5.616915207586423e-05,9.80019474126303,-4.615570793830507e-10,5.330484785058764e-08,-4.989105560235992e-08,0.9999999999999973,0.0;0.0;0.0;0.0;0.0;0.0;0.0;0.0;0.0,7.621289842063561e-05;0.0;0.0;0.0;7.621289842063561e-05;0.0;0.0;0.0;7.621289842063561e-05,3.999999975690116e-08;0.0;0.0;0.0;3.999999975690116e-08;0.0;0.0;0.0;3.999999975690116e-08
24,620000000,24.62,imu_link,0.012362851046771964,0.006459294230359711,-0.017946389375301516,0.00029423514187440844,-0.0002065641090450449,9.799986949788757,-4.6155707943112755e-10,5.330484785077969e-08,-4.989105560237986e-08,0.9999999999999973,0.0;0.0;0.0;0.0;0.0;0.0;0.0;0.0;0.0,7.621289842063561e-05;0.0;0.0;0.0;7.621289842063561e-05;0.0;0.0;0.0;7.621289842063561e-05,3.999999975690116e-08;0.0;0.0;0.0;3.999999975690116e-08;0.0;0.0;0.0;3.999999975690116e-08
24,640000000,24.64,imu_link,0.019177523293535805,0.0003206013786667434,-0.008173723975015404,0.0003433655873387966,-0.00025704450671001976,9.799916757449193,-4.615570793938502e-10,5.3304847850252567e-08,-4.989105560240296e-08,0.9999999999999973,0.0;0.0;0.0;0.0;0.0;0.0;0.0;0.0;0.0,7.621289842063561e-05;0.0;0.0;0.0;7.621289842063561e-05;0.0;0.0;0.0;7.621289842063561e-05,3.999999975690116e-08;0.0;0.0;0.0;3.999999975690116e-08;0.0;0.0;0.0;3.999999975690116e-08
24,660000000,24.66,imu_link,-0.005399804522222459,-0.008816856631291186,0.00554852442560562,-1.015890270086056e-05,0.00015645256589332473,9.800168927435157,-4.6155707965613495e-10,5.3304847850600234e-08,-4.98910556024228e-08,0.9999999999999973,0.0;0.0;0.0;0.0;0.0;0.0;0.0;0.0;0.0,7.621289842063561e-05;0.0;0.0;0.0;7.621289842063561e-05;0.0;0.0;0.0;7.621289842063561e-05,3.999999975690116e-08;0.0;0.0;0.0;3.999999975690116e-08;0.0;0.0;0.0;3.999999975690116e-08
24,680000000,24.68,imu_link,-0.0001222438835268381,-0.007152385112393262,-0.016218995615665043,0.0003372967321497812,5.673842845915735e-05,9.800247938236938,-4.61557079458019e-10,5.330484785074073e-08,-4.9891055602443225e-08,0.9999999999999973,0.0;0.0;0.0;0.0;0.0;0.0;0.0;0.0;0.0,7.621289842063561e-05;0.0;0.0;0.0;7.621289842063561e-05;0.0;0.0;0.0;7.621289842063561e-05,3.999999975690116e-08;0.0;0.0;0.0;3.999999975690116e-08;0.0;0.0;0.0;3.999999975690116e-08
24,700000000,24.7,imu_link,-0.013378451348364934,0.014704994236660393,-0.009683195854469584,0.0001572451887974201,0.00011905083277509759,9.800337772213402,-4.6155707939243835e-10,5.3304847850861127e-08,-4.989105560246497e-08,0.9999999999999973,0.0;0.0;0.0;0.0;0.0;0.0;0.0;0.0;0.0,7.621289842063561e-05;0.0;0.0;0.0;7.621289842063561e-05;0.0;0.0;0.0;7.621289842063561e-05,3.999999975690116e-08;0.0;0.0;0.0;3.999999975690116e-08;0.0;0.0;0.0;3.999999975690116e-08
24,720000000,24.72,imu_link,0.0033136603811294353,-0.010364433040480485,0.00784668587417341,0.0003027069495019863,-7.294376080321116e-05,9.80049492211656,-4.6155707946138706e-10,5.3304847850390295e-08,-4.989105560248286e-08,0.9999999999999973,0.0;0.0;0.0;0.0;0.0;0.0;0.0;0.0;0.0,7.621289842063561e-05;0.0;0.0;0.0;7.621289842063561e-05;0.0;0.0;0.0;7.621289842063561e-05,3.999999975690116e-08;0.0;0.0;0.0;3.999999975690116e-08;0.0;0.0;0.0;3.999999975690116e-08
24,740000000,24.74,imu_link,-0.008814810548421426,-0.009895502015901956,-0.00046555634260416775,0.00021870809127099594,0.00011315379942842109,9.799735179983427,-4.6155707950586694e-10,5.330484785057375e-08,-4.9891055602502265e-08,0.9999999999999973,0.0;0.0;0.0;0.0;0.0;0.0;0.0;0.0;0.0,7.621289842063561e-05;0.0;0.0;0.0;7.621289842063561e-05;0.0;0.0;0.0;7.621289842063561e-05,3.999999975690116e-08;0.0;0.0;0.0;3.999999975690116e-08;0.0;0.0;0.0;3.999999975690116e-08
24,760000000,24.76,imu_link,-0.010940152188113924,-0.010389810955359824,0.006357866186891379,0.00024680553643537464,-0.00016759751426949118,9.800109531783445,-4.6155707955345185e-10,5.330484785029455e-08,-4.9891055602521516e-08,0.9999999999999973,0.0;0.0;0.0;0.0;0.0;0.0;0.0;0.0;0.0,7.621289842063561e-05;0.0;0.0;0.0;7.621289842063561e-05;0.0;0.0;0.0;7.621289842063561e-05,3.999999975690116e-08;0.0;0.0;0.0;3.999999975690116e-08;0.0;0.0;0.0;3.999999975690116e-08
24,780000000,24.78,imu_link,0.010332263277635168,-0.0024943092160905236,0.009207913460178843,0.00011507195338405051,0.0001820914638967531,9.799934112330444,-4.6155707958186214e-10,5.330484785046085e-08,-4.9891055602541044e-08,0.9999999999999973,0.0;0.0;0.0;0.0;0.0;0.0;0.0;0.0;0.0,7.621289842063561e-05;0.0;0.0;0.0;7.621289842063561e-05;0.0;0.0;0.0;7.621289842063561e-05,3.999999975690116e-08;0.0;0.0;0.0;3.999999975690116e-08;0.0;0.0;0.0;3.999999975690116e-08
24,800000000,24.8,imu_link,0.0050195898317902275,-0.011581072381035921,-0.008360383937123354,0.0001321103540259536,-7.266458866291727e-05,9.79989143160009,-4.615570794637392e-10,5.330484785064415e-08,-4.989105560255972e-08,0.9999999999999973,0.0;0.0;0.0;0.0;0.0;0.0;0.0;0.0;0.0,7.621289842063561e-05;0.0;0.0;0.0;7.621289842063561e-05;0.0;0.0;0.0;7.621289842063561e-05,3.999999975690116e-08;0.0;0.0;0.0;3.999999975690116e-08;0.0;0.0;0.0;3.999999975690116e-08
24,820000000,24.82,imu_link,0.008374366447807924,0.02052106564164769,0.0015297769472966234,0.0004263599304537983,-0.00034922977720190445,9.800087533312457,-4.615570793940839e-10,5.3304847850764406e-08,-4.989105560258055e-08,0.9999999999999973,0.0;0.0;0.0;0.0;0.0;0.0;0.0;0.0;0.0,7.621289842063561e-05;0.0;0.0;0.0;7.621289842063561e-05;0.0;0.0;0.0;7.621289842063561e-05,3.999999975690116e-08;0.0;0.0;0.0;3.999999975690116e-08;0.0;0.0;0.0;3.999999975690116e-08
24,840000000,24.84,imu_link,-0.009158340005818732,0.006095647723876153,0.007283226936790549,0.00011158884772749947,-0.00012771306531545143,9.800060375976107,-4.6155707955376623e-10,5.33048478503379e-08,-4.989105560260079e-08,0.9999999999999973,0.0;0.0;0.0;0.0;0.0;0.0;0.0;0.0;0.0,7.621289842063561e-05;0.0;0.0;0.0;7.621289842063561e-05;0.0;0.0;0.0;7.621289842063561e-05,3.999999975690116e-08;0.0;0.0;0.0;3.999999975690116e-08;0.0;0.0;0.0;3.999999975690116e-08
24,860000000,24.86,imu_link,0.014890772029298466,0.013352301049059297,-0.004508819556067951,0.00032413132045826113,0.00014641936579829065,9.800175442179562,-4.615570794848323e-10,5.330484785045703e-08,-4.989105560262091e-08,0.9999999999999973,0.0;0.0;0.0;0.0;0.0;0.0;0.0;0.0;0.0,7.621289842063561e-05;0.0;0.0;0.0;7.621289842063561e-05;0.0;0.0;0.0;7.621289842063561e-05,3.999999975690116e-08;0.0;0.0;0.0;3.999999975690116e-08;0.0;0.0;0.0;3.999999975690116e-08
24,880000000,24.88,imu_link,-0.010626949792094558,0.00892271138879285,0.0016689842350170174,0.00046818867296560595,-0.0001586274048364166,9.799786440458453,-4.6155707963021555e-10,5.3304847850690125e-08,-4.989105560264087e-08,0.9999999999999973,0.0;0.0;0.0;0.0;0.0;0.0;0.0;0.0;0.0,7.621289842063561e-05;0.0;0.0;0.0;7.621289842063561e-05;0.0;0.0;0.0;7.621289842063561e-05,3.999999975690116e-08;0.0;0.0;0.0;3.999999975690116e-08;0.0;0.0;0.0;3.999999975690116e-08
24,900000000,24.9,imu_link,0.008990645605250445,-0.01158068071559106,-0.01085717763820868,-0.00024920400626424937,-0.00017494614681843104,9.800212163437859,-4.615570795771332e-10,5.330484785035691e-08,-4.9891055602662063e-08,0.9999999999999973,0.0;0.0;0.0;0.0;0.0;0.0;0.0;0.0;0.0,7.621289842063561e-05;0.0;0.0;0.0;7.621289842063561e-05;0.0;0.0;0.0;7.621289842063561e-05,3.999999975690116e-08;0.0;0.0;0.0;3.999999975690116e-08;0.0;0.0;0.0;3.999999975690116e-08
24,920000000,24.92,imu_link,-0.011001359581350175,0.0008305382219754915,-0.004361706655678481,-0.00016470089889785133,-0.0001714150331120031,9.80019642897433,-4.615570793705605e-10,5.3304847850357705e-08,-4.9891055602683716e-08,0.9999999999999973,0.0;0.0;0.0;0.0;0.0;0.0;0.0;0.0;0.0,7.621289842063561e-05;0.0;0.0;0.0;7.621289842063561e-05;0.0;0.0;0.0;7.621289842063561e-05,3.999999975690116e-08;0.0;0.0;0.0;3.999999975690116e-08;0.0;0.0;0.0;3.999999975690116e-08
24,940000000,24.94,imu_link,0.0077145295388522045,-0.011728400479237856,0.004372099394655591,-0.00011577613209670064,-0.000251622693750403,9.79997634044756,-4.615570796365201e-10,5.330484785071463e-08,-4.9891055602703925e-08,0.9999999999999973,0.0;0.0;0.0;0.0;0.0;0.0;0.0;0.0;0.0,7.621289842063561e-05;0.0;0.0;0.0;7.621289842063561e-05;0.0;0.0;0.0;7.621289842063561e-05,3.999999975690116e-08;0.0;0.0;0.0;3.999999975690116e-08;0.0;0.0;0.0;3.999999975690116e-08
24,960000000,24.96,imu_link,0.011173870011944668,-0.00518254620823432,-0.0011349661383053362,0.0002804345370578706,-5.314697831159594e-06,9.800180165424939,-4.615570794272816e-10,5.3304847850842876e-08,-4.98910556027253e-08,0.9999999999999973,0.0;0.0;0.0;0.0;0.0;0.0;0.0;0.0;0.0,7.621289842063561e-05;0.0;0.0;0.0;7.621289842063561e-05;0.0;0.0;0.0;7.621289842063561e-05,3.999999975690116e-08;0.0;0.0;0.0;3.999999975690116e-08;0.0;0.0;0.0;3.999999975690116e-08
24,980000000,24.98,imu_link,0.005114680576005262,-0.002829098517149185,-0.00807654082121453,0.00017506583704809963,0.00020623433457894465,9.800183394980857,-4.615570795026124e-10,5.330484785036018e-08,-4.989105560274657e-08,0.9999999999999973,0.0;0.0;0.0;0.0;0.0;0.0;0.0;0.0;0.0,7.621289842063561e-05;0.0;0.0;0.0;7.621289842063561e-05;0.0;0.0;0.0;7.621289842063561e-05,3.999999975690116e-08;0.0;0.0;0.0;3.999999975690116e-08;0.0;0.0;0.0;3.999999975690116e-08
25,0,25.0,imu_link,-0.010088743827038229,0.0030484750481153183,-0.0016691837177747963,0.0004233903955759409,-0.00017823891317530924,9.800126015616925,-4.615570795288285e-10,5.330484785053739e-08,-4.989105560276784e-08,0.9999999999999973,0.0;0.0;0.0;0.0;0.0;0.0;0.0;0.0;0.0,7.621289842063561e-05;0.0;0.0;0.0;7.621289842063561e-05;0.0;0.0;0.0;7.621289842063561e-05,3.999999975690116e-08;0.0;0.0;0.0;3.999999975690116e-08;0.0;0.0;0.0;3.999999975690116e-08
25,20000000,25.02,imu_link,0.007442350675071111,-0.0034807502185030376,0.024910470302388688,-0.00012804586339651961,-4.8756670588352546e-05,9.79970013281926,-4.615570795560635e-10,5.330484785071624e-08,-4.98910556027891e-08,0.9999999999999973,0.0;0.0;0.0;0.0;0.0;0.0;0.0;0.0;0.0,7.621289842063561e-05;0.0;0.0;0.0;7.621289842063561e-05;0.0;0.0;0.0;7.621289842063561e-05,3.999999975690116e-08;0.0;0.0;0.0;3.999999975690116e-08;0.0;0.0;0.0;3.999999975690116e-08
25,40000000,25.04,imu_link,0.0008549137717231583,-0.006543078214044027,-0.010284348461980437,0.00010249669614109803,-9.197730522598987e-05,9.800593172144078,-4.6155707959773796e-10,5.330484785043439e-08,-4.989105560280904e-08,0.9999999999999973,0.0;0.0;0.0;0.0;0.0;0.0;0.0;0.0;0.0,7.621289842063561e-05;0.0;0.0;0.0;7.621289842063561e-05;0.0;0.0;0.0;7.621289842063561e-05,3.999999975690116e-08;0.0;0.0;0.0;3.999999975690116e-08;0.0;0.0;0.0;3.999999975690116e-08
25,60000000,25.06,imu_link,-0.0034128736330819322,0.005901658124959821,-0.00038138221976009184,0.00014247567009545355,-5.4586607841840645e-05,9.799841227001275,-4.615570795125723e-10,5.330484785044489e-08,-4.989105560282978e-08,0.9999999999999973,0.0;0.0;0.0;0.0;0.0;0.0;0.0;0.0;0.0,7.621289842063561e-05;0.0;0.0;0.0;7.621289842063561e-05;0.0;0.0;0.0;7.621289842063561e-05,3.999999975690116e-08;0.0;0.0;0.0;3.999999975690116e-08;0.0;0.0;0.0;3.999999975690116e-08
25,80000000,25.08,imu_link,-0.015810709888891116,-0.0021777322790413976,-0.0006908313210686011,8.753573934994258e-05,-9.810330985732685e-05,9.799537320375814,-4.6155707954814383e-10,5.330484785061593e-08,-4.989105560285049e-08,0.9999999999999973,0.0;0.0;0.0;0.0;0.0;0.0;0.0;0.0;0.0,7.621289842063561e-05;0.0;0.0;0.0;7.621289842063561e-05;0.0;0.0;0.0;7.621289842063561e-05,3.999999975690116e-08;0.0;0.0;0.0;3.999999975690116e-08;0.0;0.0;0.0;3.999999975690116e-08
25,100000000,25.1,imu_link,-0.007052369475721009,0.006800001655629594,0.0029055139678079273,-0.00013900524045408849,-4.233847388587826e-05,9.800247401944189,-4.615570795850757e-10,5.3304847850336654e-08,-4.989105560287028e-08,0.9999999999999973,0.0;0.0;0.0;0.0;0.0;0.0;0.0;0.0;0.0,7.621289842063561e-05;0.0;0.0;0.0;7.621289842063561e-05;0.0;0.0;0.0;7.621289842063561e-05,3.999999975690116e-08;0.0;0.0;0.0;3.999999975690116e-08;0.0;0.0;0.0;3.999999975690116e-08
25,120000000,25.12,imu_link,-0.012163799657490149,0.0055048339636563715,0.011534253520837342,-9.461924373129748e-05,8.47512043764946e-05,9.80001408894842,-4.615570793658782e-10,5.3304847850467534e-08,-4.989105560289134e-08,0.9999999999999973,0.0;0.0;0.0;0.0;0.0;0.0;0.0;0.0;0.0,7.621289842063561e-05;0.0;0.0;0.0;7.621289842063561e-05;0.0;0.0;0.0;7.621289842063561e-05,3.999999975690116e-08;0.0;0.0;0.0;3.999999975690116e-08;0.0;0.0;0.0;3.999999975690116e-08
25,140000000,25.14,imu_link,-0.008624946353723281,0.0030479297040824005,0.0015067465632345456,0.0001337774493338618,-9.302051052921965e-05,9.800332757536598,-4.6155707941183677e-10,5.330484785065035e-08,-4.989105560291109e-08,0.9999999999999973,0.0;0.0;0.0;0.0;0.0;0.0;0.0;0.0;0.0,7.621289842063561e-05;0.0;0.0;0.0;7.621289842063561e-05;0.0;0.0;0.0;7.621289842063561e-05,3.999999975690116e-08;0.0;0.0;0.0;3.999999975690116e-08;0.0;0.0;0.0;3.999999975690116e-08
25,160000000,25.16,imu_link,-0.0010762008512981746,-0.002830282631456717,0.004214167666866581,9.284451389225253e-05,-0.00023239703508586967,9.800053639693713,-4.6155707943264553e-10,5.3304847850833254e-08,-4.989105560293246e-08,0.9999999999999973,0.0;0.0;0.0;0.0;0.0;0.0;0.0;0.0;0.0,7.621289842063561e-05;0.0;0.0;0.0;7.621289842063561e-05;0.0;0.0;0.0;7.621289842063561e-05,3.999999975690116e-08;0.0;0.0;0.0;3.999999975690116e-08;0.0;0.0;0.0;3.999999975690116e-08
25,180000000,25.18,imu_link,-0.0031395510491714924,-0.0005769858050419605,0.005376475097473561,3.1545384717892116e-05,5.467474469469008e-05,9.799966649185617,-4.6155707948260036e-10,5.33048478503579e-08,-4.9891055602952086e-08,0.9999999999999973,0.0;0.0;0.0;0.0;0.0;0.0;0.0;0.0;0.0,7.621289842063561e-05;0.0;0.0;0.0;7.621289842063561e-05;0.0;0.0;0.0;7.621289842063561e-05,3.999999975690116e-08;0.0;0.0;0.0;3.999999975690116e-08;0.0;0.0;0.0;3.999999975690116e-08
25,200000000,25.2,imu_link,0.0008402545149715068,0.001665915854266789,-0.004397262980837729,0.0002519605385090446,-8.356525834953146e-05,9.800108227381125,-4.6155707945996245e-10,5.330484785071251e-08,-4.989105560297074e-08,0.9999999999999973,0.0;0.0;0.0;0.0;0.0;0.0;0.0;0.0;0.0,7.621289842063561e-05;0.0;0.0;0.0;7.621289842063561e-05;0.0;0.0;0.0;7.621289842063561e-05,3.999999975690116e-08;0.0;0.0;0.0;3.999999975690116e-08;0.0;0.0;0.0;3.999999975690116e-08
25,220000000,25.22,imu_link,-0.007897190958116406,-0.001996576127109296,-0.012860800947714069,-0.000250020897457016,0.00011894267171114157,9.800034802148382,-4.6155707948797357e-10,5.3304847850884585e-08,-4.989105560299075e-08,0.9999999999999973,0.0;0.0;0.0;0.0;0.0;0.0;0.0;0.0;0.0,7.621289842063561e-05;0.0;0.0;0.0;7.621289842063561e-05;0.0;0.0;0.0;7.621289842063561e-05,3.999999975690116e-08;0.0;0.0;0.0;3.999999975690116e-08;0.0;0.0;0.0;3.999999975690116e-08
25,240000000,25.24,imu_link,-0.0033672315065385655,0.002587430033929797,-0.0023685360446816556,0.00016086974231200484,0.000246521657913764,9.799937628682308,-4.6155707956018117e-10,5.33048478504082e-08,-4.989105560300885e-08,0.9999999999999973,0.0;0.0;0.0;0.0;0.0;0.0;0.0;0.0;0.0,7.621289842063561e-05;0.0;0.0;0.0;7.621289842063561e-05;0.0;0.0;0.0;7.621289842063561e-05,3.999999975690116e-08;0.0;0.0;0.0;3.999999975690116e-08;0.0;0.0;0.0;3.999999975690116e-08
25,260000000,25.26,imu_link,-0.022839664620705108,-0.01734627913780306,-0.005468260390249213,-5.1086847367226386e-05,-1.683347061426935e-05,9.80011349101734,-4.615570795900748e-10,5.3304847850581334e-08,-4.989105560302819e-08,0.9999999999999973,0.0;0.0;0.0;0.0;0.0;0.0;0.0;0.0;0.0,7.621289842063561e-05;0.0;0.0;0.0;7.621289842063561e-05;0.0;0.0;0.0;7.621289842063561e-05,3.999999975690116e-08;0.0;0.0;0.0;3.999999975690116e-08;0.0;0.0;0.0;3.999999975690116e-08
25,280000000,25.28,imu_link,-0.008716070205613474,0.005451348095147789,0.01022657761156861,0.00034094069057913443,-0.00022323029117665377,9.799853265689267,-4.615570793743597e-10,5.330484785070468e-08,-4.989105560304727e-08,0.9999999999999973,0.0;0.0;0.0;0.0;0.0;0.0;0.0;0.0;0.0,7.621289842063561e-05;0.0;0.0;0.0;7.621289842063561e-05;0.0;0.0;0.0;7.621289842063561e-05,3.999999975690116e-08;0.0;0.0;0.0;3.999999975690116e-08;0.0;0.0;0.0;3.999999975690116e-08
25,300000000,25.3,imu_link,0.009452314577743018,0.0034314135348924683,-0.0035037829271854855,0.00035790645498279977,-2.4232791348279516e-05,9.800020206481522,-4.61557079417974e-10,5.330484785088819e-08,-4.9891055603066495e-08,0.9999999999999973,0.0;0.0;0.0;0.0;0.0;0.0;0.0;0.0;0.0,7.621289842063561e-05;0.0;0.0;0.0;7.621289842063561e-05;0.0;0.0;0.0;7.621289842063561e-05,3.999999975690116e-08;0.0;0.0;0.0;3.999999975690116e-08;0.0;0.0;0.0;3.999999975690116e-08
25,320000000,25.32,imu_link,-0.004077862521799258,-0.010406397828440066,0.016771386697772894,6.276339502031986e-05,9.713728559778906e-05,9.799996796965319,-4.615570794766297e-10,5.330484785040868e-08,-4.9891055603083906e-08,0.9999999999999973,0.0;0.0;0.0;0.0;0.0;0.0;0.0;0.0;0.0,7.621289842063561e-05;0.0;0.0;0.0;7.621289842063561e-05;0.0;0.0;0.0;7.621289842063561e-05,3.999999975690116e-08;0.0;0.0;0.0;3.999999975690116e-08;0.0;0.0;0.0;3.999999975690116e-08
