time_sec,time_nsec,timestamp,frame_id,angular_vel_x,angular_vel_y,angular_vel_z,linear_acc_x,linear_acc_y,linear_acc_z,orient_x,orient_y,orient_z,orient_w,orientation_covariance,angular_velocity_covariance,linear_acceleration_covariance
138,20000000,138.02,imu_link,-0.012920030532495396,-0.0024903424697137007,0.01568593780630181,0.00013152347957037845,0.000199296403178382,9.799980800991973,-4.6155707943039374e-10,5.3304847850520745e-08,-4.989105567328332e-08,0.9999999999999973,0.0;0.0;0.0;0.0;0.0;0.0;0.0;0.0;0.0,7.621289842063561e-05;0.0;0.0;0.0;7.621289842063561e-05;0.0;0.0;0.0;7.621289842063561e-05,3.999999975690116e-08;0.0;0.0;0.0;3.999999975690116e-08;0.0;0.0;0.0;3.999999975690116e-08
138,40000000,138.04,imu_link,0.003605188829887711,-0.003757796957801133,0.016773028445030137,5.1525482500525617e-05,-0.00044854483668924593,9.800173059181093,-4.6155707949752885e-10,5.3304847850686644e-08,-4.9891055673284554e-08,0.9999999999999973,0.0;0.0;0.0;0.0;0.0;0.0;0.0;0.0;0.0,7.621289842063561e-05;0.0;0.0;0.0;7.621289842063561e-05;0.0;0.0;0.0;7.621289842063561e-05,3.999999975690116e-08;0.0;0.0;0.0;3.999999975690116e-08;0.0;0.0;0.0;3.999999975690116e-08
138,60000000,138.06,imu_link,0.005158920083831852,0.0017148723340657916,0.00535960970794148,0.00023454166334049942,4.6699928592308036e-05,9.80016193675484,-4.615570796793203e-10,5.330484785083193e-08,-4.989105567328586e-08,0.9999999999999973,0.0;0.0;0.0;0.0;0.0;0.0;0.0;0.0;0.0,7.621289842063561e-05;0.0;0.0;0.0;7.621289842063561e-05;0.0;0.0;0.0;7.621289842063561e-05,3.999999975690116e-08;0.0;0.0;0.0;3.999999975690116e-08;0.0;0.0;0.0;3.999999975690116e-08
138,80000000,138.08,imu_link,-0.0029124899343652873,0.008430820364519087,0.006327247841973567,0.00010074367499096149,-0.00014020590903110564,9.799802827928993,-4.6155707951192764e-10,5.330484785028049e-08,-4.989105567328796e-08,0.9999999999999973,0.0;0.0;0.0;0.0;0.0;0.0;0.0;0.0;0.0,7.621289842063561e-05;0.0;0.0;0.0;7.621289842063561e-05;0.0;0.0;0.0;7.621289842063561e-05,3.999999975690116e-08;0.0;0.0;0.0;3.999999975690116e-08;0.0;0.0;0.0;3.999999975690116e-08
138,100000000,138.1,imu_link,0.0017969554663831487,0.006083945521484203,0.0017535664499054998,0.00017821739049892025,-8.630928883694391e-05,9.800001857140074,-4.615570795581389e-10,5.330484785043768e-08,-4.989105567328854e-08,0.9999999999999973,0.0;0.0;0.0;0.0;0.0;0.0;0.0;0.0;0.0,7.621289842063561e-05;0.0;0.0;0.0;7.621289842063561e-05;0.0;0.0;0.0;7.621289842063561e-05,3.999999975690116e-08;0.0;0.0;0.0;3.999999975690116e-08;0.0;0.0;0.0;3.999999975690116e-08
138,120000000,138.12,imu_link,-0.00040391026022709584,0.006289936971831935,0.0153421120091066,-5.6352811690546636e-05,6.248740957055118e-05,9.800081265666119,-4.6155707960348733e-10,5.330484785058972e-08,-4.98910556732897e-08,0.9999999999999973,0.0;0.0;0.0;0.0;0.0;0.0;0.0;0.0;0.0,7.621289842063561e-05;0.0;0.0;0.0;7.621289842063561e-05;0.0;0.0;0.0;7.621289842063561e-05,3.999999975690116e-08;0.0;0.0;0.0;3.999999975690116e-08;0.0;0.0;0.0;3.999999975690116e-08
138,140000000,138.14,imu_link,0.001284684005247103,0.018625978688701996,0.008926010948199493,0.00017112007693160993,0.00021135363679822245,9.800427675060421,-4.6155707951334806e-10,5.3304847850879854e-08,-4.989105567329297e-08,0.9999999999999973,0.0;0.0;0.0;0.0;0.0;0.0;0.0;0.0;0.0,7.621289842063561e-05;0.0;0.0;0.0;7.621289842063561e-05;0.0;0.0;0.0;7.621289842063561e-05,3.999999975690116e-08;0.0;0.0;0.0;3.999999975690116e-08;0.0;0.0;0.0;3.999999975690116e-08
138,160000000,138.16,imu_link,-0.00623489084545427,-0.012569374654139572,0.017309754685128572,0.00016005850375182186,4.9531792837613674e-05,9.799720887141486,-4.6155707957907723e-10,5.3304847850392876e-08,-4.989105567329612e-08,0.9999999999999973,0.0;0.0;0.0;0.0;0.0;0.0;0.0;0.0;0.0,7.621289842063561e-05;0.0;0.0;0.0;7.621289842063561e-05;0.0;0.0;0.0;7.621289842063561e-05,3.999999975690116e-08;0.0;0.0;0.0;3.999999975690116e-08;0.0;0.0;0.0;3.999999975690116e-08
138,180000000,138.18,imu_link,-0.006970845006641424,-0.013497177095698308,0.006920766109916217,-6.445851424227022e-05,-7.506581546715181e-06,9.800110229009542,-4.615570796098696e-10,5.330484785055811e-08,-4.9891055673299225e-08,0.9999999999999973,0.0;0.0;0.0;0.0;0.0;0.0;0.0;0.0;0.0,7.621289842063561e-05;0.0;0.0;0.0;7.621289842063561e-05;0.0;0.0;0.0;7.621289842063561e-05,3.999999975690116e-08;0.0;0.0;0.0;3.999999975690116e-08;0.0;0.0;0.0;3.999999975690116e-08
138,200000000,138.2,imu_link,-0.011133628823873051,-0.007059540284185427,-0.010171277145523386,0.00015463001085907758,-0.00027637500367703414,9.799748443250879,-4.615570796412273e-10,5.3304847850721386e-08,-4.9891055673302725e-08,0.9999999999999973,0.0;0.0;0.0;0.0;0.0;0.0;0.0;0.0;0.0,7.621289842063561e-05;0.0;0.0;0.0;7.621289842063561e-05;0.0;0.0;0.0;7.621289842063561e-05,3.999999975690116e-08;0.0;0.0;0.0;3.999999975690116e-08;0.0;0.0;0.0;3.999999975690116e-08
138,220000000,138.22,imu_link,-0.014077901454695351,0.013953448898774526,0.007030479239476226,0.00010181698377648782,-0.00012651775428948464,9.799592966475027,-4.6155707956995663e-10,5.3304847850247153e-08,-4.9891055673305564e-08,0.9999999999999973,0.0;0.0;0.0;0.0;0.0;0.0;0.0;0.0;0.0,7.621289842063561e-05;0.0;0.0;0.0;7.621289842063561e-05;0.0;0.0;0.0;7.621289842063561e-05,3.999999975690116e-08;0.0;0.0;0.0;3.999999975690116e-08;0.0;0.0;0.0;3.999999975690116e-08
138,240000000,138.24,imu_link,-0.0023593740294611918,-0.00406312359054257,0.0067525097761063505,0.0001756108687653313,-0.00011771468334843887,9.800231861889385,-4.61557079502213e-10,5.330484785035904e-08,-4.9891055673309693e-08,0.9999999999999973,0.0;0.0;0.0;0.0;0.0;0.0;0.0;0.0;0.0,7.621289842063561e-05;0.0;0.0;0.0;7.621289842063561e-05;0.0;0.0;0.0;7.621289842063561e-05,3.999999975690116e-08;0.0;0.0;0.0;3.999999975690116e-08;0.0;0.0;0.0;3.999999975690116e-08
138,260000000,138.26,imu_link,-0.016081936450111068,-0.00700604518860277,0.020263971411490903,-4.8280301439842954e-05,2.792817746856211e-05,9.800001248990306,-4.6155707965031904e-10,5.330484785070381e-08,-4.9891055673312274e-08,0.9999999999999973,0.0;0.0;0.0;0.0;0.0;0.0;0.0;0.0;0.0,7.621289842063561e-05;0.0;0.0;0.0;7.621289842063561e-05;0.0;0.0;0.0;7.621289842063561e-05,3.999999975690116e-08;0.0;0.0;0.0;3.999999975690116e-08;0.0;0.0;0.0;3.999999975690116e-08
138,280000000,138.28,imu_link,-0.0020037391791037666,-0.00199974521226239,0.000244597366600997,8.192848172555565e-06,-0.00029157054931076625,9.799647356759172,-4.615570794509353e-10,5.3304847850815704e-08,-4.989105567331621e-08,0.9999999999999973,0.0;0.0;0.0;0.0;0.0;0.0;0.0;0.0;0.0,7.621289842063561e-05;0.0;0.0;0.0;7.621289842063561e-05;0.0;0.0;0.0;7.621289842063561e-05,3.999999975690116e-08;0.0;0.0;0.0;3.999999975690116e-08;0.0;0.0;0.0;3.999999975690116e-08
138,300000000,138.3,imu_link,-0.0112559528924147,-0.0008112652936563015,0.008558895002003384,0.0003566160130638848,-0.0002826838984580026,9.800145828123563,-4.6155707952565687e-10,5.330484785032521e-08,-4.989105567331883e-08,0.9999999999999973,0.0;0.0;0.0;0.0;0.0;0.0;0.0;0.0;0.0,7.621289842063561e-05;0.0;0.0;0.0;7.621289842063561e-05;0.0;0.0;0.0;7.621289842063561e-05,3.999999975690116e-08;0.0;0.0;0.0;3.999999975690116e-08;0.0;0.0;0.0;3.999999975690116e-08
138,320000000,138.32,imu_link,0.006119984879633796,-0.006945235553837253,-0.0038104393912268848,0.00023269469284851213,-0.00023276642949174894,9.800001416324667,-4.615570794626458e-10,5.33048478504295e-08,-4.989105567332203e-08,0.9999999999999973,0.0;0.0;0.0;0.0;0.0;0.0;0.0;0.0;0.0,7.621289842063561e-05;0.0;0.0;0.0;7.621289842063561e-05;0.0;0.0;0.0;7.621289842063561e-05,3.999999975690116e-08;0.0;0.0;0.0;3.999999975690116e-08;0.0;0.0;0.0;3.999999975690116e-08
138,340000000,138.34,imu_link,0.0033099656239098814,-0.004921495694706969,0.03430965557701912,0.0003384682159261001,-0.00034610618076944596,9.800297079683736,-4.6155707951892404e-10,5.330484785059129e-08,-4.989105567332524e-08,0.9999999999999973,0.0;0.0;0.0;0.0;0.0;0.0;0.0;0.0;0.0,7.621289842063561e-05;0.0;0.0;0.0;7.621289842063561e-05;0.0;0.0;0.0;7.621289842063561e-05,3.999999975690116e-08;0.0;0.0;0.0;3.999999975690116e-08;0.0;0.0;0.0;3.999999975690116e-08
138,360000000,138.36,imu_link,0.0006200871577361622,0.007918170717584595,0.013055915607464517,0.00024999869156516855,9.899222236798568e-05,9.800187898925394,-4.615570795519198e-10,5.330484785027514e-08,-4.989105567332757e-08,0.9999999999999973,0.0;0.0;0.0;0.0;0.0;0.0;0.0;0.0;0.0,7.621289842063561e-05;0.0;0.0;0.0;7.621289842063561e-05;0.0;0.0;0.0;7.621289842063561e-05,3.999999975690116e-08;0.0;0.0;0.0;3.999999975690116e-08;0.0;0.0;0.0;3.999999975690116e-08
138,380000000,138.38,imu_link,0.008937413740755941,0.004174717026054376,0.01692655867735798,0.00019895689999532612,-0.00024345663529108625,9.800310886200643,-4.615570795866085e-10,5.330484785043172e-08,-4.989105567332978e-08,0.9999999999999973,0.0;0.0;0.0;0.0;0.0;0.0;0.0;0.0;0.0,7.621289842063561e-05;0.0;0.0;0.0;7.621289842063561e-05;0.0;0.0;0.0;7.621289842063561e-05,3.999999975690116e-08;0.0;0.0;0.0;3.999999975690116e-08;0.0;0.0;0.0;3.999999975690116e-08
138,400000000,138.4,imu_link,-0.004548101872723935,-0.007226337727006438,0.0006958236723301307,0.00045190451759588167,-0.0005317761412138278,9.800050014287557,-4.615570793727244e-10,5.330484785054575e-08,-4.989105567333273e-08,0.9999999999999973,0.0;0.0;0.0;0.0;0.0;0.0;0.0;0.0;0.0,7.621289842063561e-05;0.0;0.0;0.0;7.621289842063561e-05;0.0;0.0;0.0;7.621289842063561e-05,3.999999975690116e-08;0.0;0.0;0.0;3.999999975690116e-08;0.0;0.0;0.0;3.999999975690116e-08
138,420000000,138.42,imu_link,-0.007575388339723139,0.0009684225103435279,0.01496983550358508,0.00032070679390732663,5.4323437109656726e-05,9.800102805082505,-4.61557079517536e-10,5.3304847850769336e-08,-4.9891055673335554e-08,0.9999999999999973,0.0;0.0;0.0;0.0;0.0;0.0;0.0;0.0;0.0,7.621289842063561e-05;0.0;0.0;0.0;7.621289842063561e-05;0.0;0.0;0.0;7.621289842063561e-05,3.999999975690116e-08;0.0;0.0;0.0;3.999999975690116e-08;0.0;0.0;0.0;3.999999975690116e-08
138,440000000,138.44,imu_link,-0.006886973661377309,0.00846204272805919,0.028413529837231277,0.00013207192700783097,0.00012448670028041914,9.800184836782373,-4.615570794318345e-10,5.3304847850871046e-08,-4.989105567333782e-08,0.9999999999999973,0.0;0.0;0.0;0.0;0.0;0.0;0.0;0.0;0.0,7.621289842063561e-05;0.0;0.0;0.0;7.621289842063561e-05;0.0;0.0;0.0;7.621289842063561e-05,3.999999975690116e-08;0.0;0.0;0.0;3.999999975690116e-08;0.0;0.0;0.0;3.999999975690116e-08
138,460000000,138.46,imu_link,0.007722944106142027,-0.0146029240649975,0.013382998755499247,-9.386778210772834e-05,0.00011259392512242297,9.800278356537751,-4.615570795974808e-10,5.330484785055167e-08,-4.989105567334129e-08,0.9999999999999973,0.0;0.0;0.0;0.0;0.0;0.0;0.0;0.0;0.0,7.621289842063561e-05;0.0;0.0;0.0;7.621289842063561e-05;0.0;0.0;0.0;7.621289842063561e-05,3.999999975690116e-08;0.0;0.0;0.0;3.999999975690116e-08;0.0;0.0;0.0;3.999999975690116e-08
138,480000000,138.48,imu_link,0.016088477962761846,0.0005314526475557647,0.004038301026049731,-0.00012296859905207215,-0.000357511029827016,9.80014080804778,-4.6155707940071936e-10,5.3304847850657495e-08,-4.989105567334467e-08,0.9999999999999973,0.0;0.0;0.0;0.0;0.0;0.0;0.0;0.0;0.0,7.621289842063561e-05;0.0;0.0;0.0;7.621289842063561e-05;0.0;0.0;0.0;7.621289842063561e-05,3.999999975690116e-08;0.0;0.0;0.0;3.999999975690116e-08;0.0;0.0;0.0;3.999999975690116e-08
138,500000000,138.5,imu_link,-0.004216311478925311,-0.011958259077482753,0.018909728855122883,8.554311721737484e-05,-3.496622286833223e-06,9.799962672413566,-4.615570794449318e-10,5.3304847850699793e-08,-4.989105567334594e-08,0.9999999999999973,0.0;0.0;0.0;0.0;0.0;0.0;0.0;0.0;0.0,7.621289842063561e-05;0.0;0.0;0.0;7.621289842063561e-05;0.0;0.0;0.0;7.621289842063561e-05,3.999999975690116e-08;0.0;0.0;0.0;3.999999975690116e-08;0.0;0.0;0.0;3.999999975690116e-08
138,520000000,138.52,imu_link,-0.0035811553838269975,0.011125339570017571,0.024883823624218575,-0.0003688855437197109,-4.690669134179663e-05,9.799559759876404,-4.61557079485933e-10,5.3304847850397535e-08,-4.989105567334737e-08,0.9999999999999973,0.0;0.0;0.0;0.0;0.0;0.0;0.0;0.0;0.0,7.621289842063561e-05;0.0;0.0;0.0;7.621289842063561e-05;0.0;0.0;0.0;7.621289842063561e-05,3.999999975690116e-08;0.0;0.0;0.0;3.999999975690116e-08;0.0;0.0;0.0;3.999999975690116e-08
138,540000000,138.54,imu_link,-0.008776809313722895,-0.014876987600880088,0.015505833163528954,0.0002264070217631424,-6.806035822684112e-05,9.800385064426562,-4.6155707954040106e-10,5.330484785043764e-08,-4.989105567334696e-08,0.9999999999999973,0.0;0.0;0.0;0.0;0.0;0.0;0.0;0.0;0.0,7.621289842063561e-05;0.0;0.0;0.0;7.621289842063561e-05;0.0;0.0;0.0;7.621289842063561e-05,3.999999975690116e-08;0.0;0.0;0.0;3.999999975690116e-08;0.0;0.0;0.0;3.999999975690116e-08
138,560000000,138.56,imu_link,0.008144640683813322,0.011159572625601393,0.01706666211160031,-8.541056801200543e-05,-6.899804039650143e-05,9.799991598724343,-4.615570794537074e-10,5.3304847850738605e-08,-4.989105567334983e-08,0.9999999999999973,0.0;0.0;0.0;0.0;0.0;0.0;0.0;0.0;0.0,7.621289842063561e-05;0.0;0.0;0.0;7.621289842063561e-05;0.0;0.0;0.0;7.621289842063561e-05,3.999999975690116e-08;0.0;0.0;0.0;3.999999975690116e-08;0.0;0.0;0.0;3.999999975690116e-08
138,580000000,138.58,imu_link,-0.0065998964566797306,-0.0036855917435531394,0.016855155704350654,9.559757294239894e-05,-0.00034560589339904037,9.80013323073105,-4.615570793971424e-10,5.330484785072407e-08,-4.9891055673350775e-08,0.9999999999999973,0.0;0.0;0.0;0.0;0.0;0.0;0.0;0.0;0.0,7.621289842063561e-05;0.0;0.0;0.0;7.621289842063561e-05;0.0;0.0;0.0;7.621289842063561e-05,3.999999975690116e-08;0.0;0.0;0.0;3.999999975690116e-08;0.0;0.0;0.0;3.999999975690116e-08
138,600000000,138.6,imu_link,-0.0011905058719607843,0.009614928382647037,0.013375593424082077,0.00015159743633802922,-7.913822640652012e-05,9.800190776628725,-4.615570795697455e-10,5.330484785040618e-08,-4.989105567335199e-08,0.9999999999999973,0.0;0.0;0.0;0.0;0.0;0.0;0.0;0.0;0.0,7.621289842063561e-05;0.0;0.0;0.0;7.621289842063561e-05;0.0;0.0;0.0;7.621289842063561e-05,3.999999975690116e-08;0.0;0.0;0.0;3.999999975690116e-08;0.0;0.0;0.0;3.999999975690116e-08
138,620000000,138.62,imu_link,-0.007784842643804149,-0.008501076948337892,0.010537810691852483,-0.0001103809334085721,0.00014233012113831078,9.800224812417358,-4.6155707952359114e-10,5.3304847850507014e-08,-4.9891055673356995e-08,0.9999999999999973,0.0;0.0;0.0;0.0;0.0;0.0;0.0;0.0;0.0,7.621289842063561e-05;0.0;0.0;0.0;7.621289842063561e-05;0.0;0.0;0.0;7.621289842063561e-05,3.999999975690116e-08;0.0;0.0;0.0;3.999999975690116e-08;0.0;0.0;0.0;3.999999975690116e-08
138,640000000,138.64,imu_link,0.0014688247691376768,0.002265838738201057,0.004101057744264261,-6.941422922450176e-05,-0.00027597508145523245,9.80009657634659,-4.615570796782853e-10,5.3304847850846806e-08,-4.989105567336137e-08,0.9999999999999973,0.0;0.0;0.0;0.0;0.0;0.0;0.0;0.0;0.0,7.621289842063561e-05;0.0;0.0;0.0;7.621289842063561e-05;0.0;0.0;0.0;7.621289842063561e-05,3.999999975690116e-08;0.0;0.0;0.0;3.999999975690116e-08;0.0;0.0;0.0;3.999999975690116e-08
138,660000000,138.66,imu_link,-0.004153681729533426,-0.0026153938982090225,0.010329832645129676,-0.0002556187777464808,-0.0002951202713675845,9.799888410411242,-4.615570795268532e-10,5.33048478503071e-08,-4.989105567336555e-08,0.9999999999999973,0.0;0.0;0.0;0.0;0.0;0.0;0.0;0.0;0.0,7.621289842063561e-05;0.0;0.0;0.0;7.621289842063561e-05;0.0;0.0;0.0;7.621289842063561e-05,3.999999975690116e-08;0.0;0.0;0.0;3.999999975690116e-08;0.0;0.0;0.0;3.999999975690116e-08
138,680000000,138.68,imu_link,0.0028142502995074548,-0.003523632768883832,0.022909055468231236,0.00010891027523889176,0.0003145776712849269,9.800275881639738,-4.6155707946525754e-10,5.330484785041011e-08,-4.989105567337171e-08,0.9999999999999973,0.0;0.0;0.0;0.0;0.0;0.0;0.0;0.0;0.0,7.621289842063561e-05;0.0;0.0;0.0;7.621289842063561e-05;0.0;0.0;0.0;7.621289842063561e-05,3.999999975690116e-08;0.0;0.0;0.0;3.999999975690116e-08;0.0;0.0;0.0;3.999999975690116e-08
138,700000000,138.7,imu_link,0.0015097139929680932,0.0056360859051362705,0.011947585545147387,-2.2393431415675604e-05,-0.00018899536317455306,9.799995681848173,-4.615570795060003e-10,5.330484785055301e-08,-4.989105567337725e-08,0.9999999999999973,0.0;0.0;0.0;0.0;0.0;0.0;0.0;0.0;0.0,7.621289842063561e-05;0.0;0.0;0.0;7.621289842063561e-05;0.0;0.0;0.0;7.621289842063561e-05,3.999999975690116e-08;0.0;0.0;0.0;3.999999975690116e-08;0.0;0.0;0.0;3.999999975690116e-08
138,720000000,138.72,imu_link,-0.01196656229410502,-0.00856308148282091,0.014271727911535761,0.00013216385860846195,1.0999011380461143e-05,9.800123173424167,-4.6155707955248684e-10,5.330484785026008e-08,-4.9891055673381354e-08,0.9999999999999973,0.0;0.0;0.0;0.0;0.0;0.0;0.0;0.0;0.0,7.621289842063561e-05;0.0;0.0;0.0;7.621289842063561e-05;0.0;0.0;0.0;7.621289842063561e-05,3.999999975690116e-08;0.0;0.0;0.0;3.999999975690116e-08;0.0;0.0;0.0;3.999999975690116e-08
138,740000000,138.74,imu_link,0.00567720086173482,-0.010294420155648886,0.015544741587332545,0.00038669107058128196,4.884888660778695e-05,9.800167783326202,-4.6155707961236815e-10,5.330484785041967e-08,-4.9891055673384854e-08,0.9999999999999973,0.0;0.0;0.0;0.0;0.0;0.0;0.0;0.0;0.0,7.621289842063561e-05;0.0;0.0;0.0;7.621289842063561e-05;0.0;0.0;0.0;7.621289842063561e-05,3.999999975690116e-08;0.0;0.0;0.0;3.999999975690116e-08;0.0;0.0;0.0;3.999999975690116e-08
138,760000000,138.76,imu_link,-0.0074674001375842946,-0.0011425110173079183,0.014567517022162805,7.824511894448976e-05,-0.0006168281126390752,9.800115630016226,-4.6155707941577544e-10,5.3304847850521605e-08,-4.9891055673388805e-08,0.9999999999999973,0.0;0.0;0.0;0.0;0.0;0.0;0.0;0.0;0.0,7.621289842063561e-05;0.0;0.0;0.0;7.621289842063561e-05;0.0;0.0;0.0;7.621289842063561e-05,3.999999975690116e-08;0.0;0.0;0.0;3.999999975690116e-08;0.0;0.0;0.0;3.999999975690116e-08
138,780000000,138.78,imu_link,-0.014345478948566288,0.005439677121832249,0.016899413877869238,-9.384138780118008e-05,-0.0004924521653351505,9.799924595247376,-4.61557079589963e-10,5.330484785067728e-08,-4.989105567339307e-08,0.9999999999999973,0.0;0.0;0.0;0.0;0.0;0.0;0.0;0.0;0.0,7.621289842063561e-05;0.0;0.0;0.0;7.621289842063561e-05;0.0;0.0;0.0;7.621289842063561e-05,3.999999975690116e-08;0.0;0.0;0.0;3.999999975690116e-08;0.0;0.0;0.0;3.999999975690116e-08
138,800000000,138.8,imu_link,-0.002022815532442414,0.011215507823483444,0.005158646557822175,4.243070627831552e-06,-0.0002744246895195018,9.800216247072813,-4.6155707938844767e-10,5.3304847850331645e-08,-4.989105567339649e-08,0.9999999999999973,0.0;0.0;0.0;0.0;0.0;0.0;0.0;0.0;0.0,7.621289842063561e-05;0.0;0.0;0.0;7.621289842063561e-05;0.0;0.0;0.0;7.621289842063561e-05,3.999999975690116e-08;0.0;0.0;0.0;3.999999975690116e-08;0.0;0.0;0.0;3.999999975690116e-08
138,820000000,138.82,imu_link,0.0033378978828390647,-0.006317756995857439,0.019570050231196602,0.00015574101678069067,-4.039886078292396e-05,9.800084127387565,-4.6155707944269014e-10,5.330484785049511e-08,-4.989105567340238e-08,0.9999999999999973,0.0;0.0;0.0;0.0;0.0;0.0;0.0;0.0;0.0,7.621289842063561e-05;0.0;0.0;0.0;7.621289842063561e-05;0.0;0.0;0.0;7.621289842063561e-05,3.999999975690116e-08;0.0;0.0;0.0;3.999999975690116e-08;0.0;0.0;0.0;3.999999975690116e-08
138,840000000,138.84,imu_link,-0.006979656996854065,-0.0004161341386988963,0.007614182845103433,0.00045838132005070366,-4.933976794118627e-05,9.800220599443163,-4.61557079372905e-10,5.330484785060613e-08,-4.98910556734079e-08,0.9999999999999973,0.0;0.0;0.0;0.0;0.0;0.0;0.0;0.0;0.0,7.621289842063561e-05;0.0;0.0;0.0;7.621289842063561e-05;0.0;0.0;0.0;7.621289842063561e-05,3.999999975690116e-08;0.0;0.0;0.0;3.999999975690116e-08;0.0;0.0;0.0;3.999999975690116e-08
138,860000000,138.86,imu_link,-0.006997165316737949,0.006081609049887552,0.005312449591191868,0.0001075842478792937,0.0002580697300691389,9.79998166278548,-4.615570794056031e-10,5.330484785076424e-08,-4.989105567341246e-08,0.9999999999999973,0.0;0.0;0.0;0.0;0.0;0.0;0.0;0.0;0.0,7.621289842063561e-05;0.0;0.0;0.0;7.621289842063561e-05;0.0;0.0;0.0;7.621289842063561e-05,3.999999975690116e-08;0.0;0.0;0.0;3.999999975690116e-08;0.0;0.0;0.0;3.999999975690116e-08
138,880000000,138.88,imu_link,0.0022325386743483914,0.012917399334827225,0.014147640508737567,0.00039179764159037896,-0.00030682444604898375,9.800167683555813,-4.615570794755776e-10,5.33048478502796e-08,-4.9891055673418286e-08,0.9999999999999973,0.0;0.0;0.0;0.0;0.0;0.0;0.0;0.0;0.0,7.621289842063561e-05;0.0;0.0;0.0;7.621289842063561e-05;0.0;0.0;0.0;7.621289842063561e-05,3.999999975690116e-08;0.0;0.0;0.0;3.999999975690116e-08;0.0;0.0;0.0;3.999999975690116e-08
138,900000000,138.9,imu_link,0.00830034612164354,0.003452964236580324,0.008849129797814739,4.1973556988485105e-05,-0.00013840532770384553,9.799962675920273,-4.615570795271535e-10,5.330484785044572e-08,-4.989105567342297e-08,0.9999999999999973,0.0;0.0;0.0;0.0;0.0;0.0;0.0;0.0;0.0,7.621289842063561e-05;0.0;0.0;0.0;7.621289842063561e-05;0.0;0.0;0.0;7.621289842063561e-05,3.999999975690116e-08;0.0;0.0;0.0;3.999999975690116e-08;0.0;0.0;0.0;3.999999975690116e-08
138,920000000,138.92,imu_link,0.0018493440749737633,-0.01774987801857109,0.0032380130551216578,-0.00018720459525693853,6.5118848070387e-05,9.799862800032146,-4.6155707956710467e-10,5.330484785061054e-08,-4.989105567342777e-08,0.9999999999999973,0.0;0.0;0.0;0.0;0.0;0.0;0.0;0.0;0.0,7.621289842063561e-05;0.0;0.0;0.0;7.621289842063561e-05;0.0;0.0;0.0;7.621289842063561e-05,3.999999975690116e-08;0.0;0.0;0.0;3.999999975690116e-08;0.0;0.0;0.0;3.999999975690116e-08
138,940000000,138.94,imu_link,-0.003500184594001501,-0.012933700591600763,0.0008134993188422222,0.00033003160140051733,-0.00023214018104770893,9.800006533566712,-4.615570794618178e-10,5.330484785078509e-08,-4.989105567343348e-08,0.9999999999999973,0.0;0.0;0.0;0.0;0.0;0.0;0.0;0.0;0.0,7.621289842063561e-05;0.0;0.0;0.0;7.621289842063561e-05;0.0;0.0;0.0;7.621289842063561e-05,3.999999975690116e-08;0.0;0.0;0.0;3.999999975690116e-08;0.0;0.0;0.0;3.999999975690116e-08
138,960000000,138.96,imu_link,-0.0002094312513791204,0.007228586270802879,0.013858513941294098,4.7006111170239596e-05,-0.0001671503188534828,9.800205778889753,-4.6155707961612e-10,5.330484785045702e-08,-4.9891055673438674e-08,0.9999999999999973,0.0;0.0;0.0;0.0;0.0;0.0;0.0;0.0;0.0,7.621289842063561e-05;0.0;0.0;0.0;7.621289842063561e-05;0.0;0.0;0.0;7.621289842063561e-05,3.999999975690116e-08;0.0;0.0;0.0;3.999999975690116e-08;0.0;0.0;0.0;3.999999975690116e-08
138,980000000,138.98,imu_link,-0.010813362238092374,0.001084419616374181,0.001684142733413524,0.00017169626177051224,0.00018784299102866437,9.799987871677526,-4.6155707942106324e-10,5.330484785056699e-08,-4.9891055673443856e-08,0.9999999999999973,0.0;0.0;0.0;0.0;0.0;0.0;0.0;0.0;0.0,7.621289842063561e-05;0.0;0.0;0.0;7.621289842063561e-05;0.0;0.0;0.0;7.621289842063561e-05,3.999999975690116e-08;0.0;0.0;0.0;3.999999975690116e-08;0.0;0.0;0.0;3.999999975690116e-08
139,0,139.0,imu_link,-0.006517029959039023,-0.004402683345012341,0.023294823837460628,0.00028895233012834977,-2.4805714835128716e-05,9.800064684551108,-4.615570795916674e-10,5.330484785061339e-08,-4.989105567344821e-08,0.9999999999999973,0.0;0.0;0.0;0.0;0.0;0.0;0.0;0.0;0.0,7.621289842063561e-05;0.0;0.0;0.0;7.621289842063561e-05;0.0;0.0;0.0;7.621289842063561e-05,3.999999975690116e-08;0.0;0.0;0.0;3.999999975690116e-08;0.0;0.0;0.0;3.999999975690116e-08
139,20000000,139.02,imu_link,0.012269857484583119,0.0015810703624599173,0.0281568400584203,0.00012446266246067149,0.00018505068365827558,9.800284754224263,-4.6155707951044306e-10,5.330484785024541e-08,-4.9891055673452485e-08,0.9999999999999973,0.0;0.0;0.0;0.0;0.0;0.0;0.0;0.0;0.0,7.621289842063561e-05;0.0;0.0;0.0;7.621289842063561e-05;0.0;0.0;0.0;7.621289842063561e-05,3.999999975690116e-08;0.0;0.0;0.0;3.999999975690116e-08;0.0;0.0;0.0;3.999999975690116e-08
139,40000000,139.04,imu_link,-0.0033423098732025453,-0.005340193894072272,0.0092466489982003,0.0004395192906406985,-0.00010171976653079529,9.800584772503704,-4.615570795666227e-10,5.330484785041173e-08,-4.989105567345552e-08,0.9999999999999973,0.0;0.0;0.0;0.0;0.0;0.0;0.0;0.0;0.0,7.621289842063561e-05;0.0;0.0;0.0;7.621289842063561e-05;0.0;0.0;0.0;7.621289842063561e-05,3.999999975690116e-08;0.0;0.0;0.0;3.999999975690116e-08;0.0;0.0;0.0;3.999999975690116e-08
139,60000000,139.06,imu_link,0.004253874797882892,-0.006151544856938723,0.011597688400855646,0.0002917558207716856,1.7059758962298594e-06,9.79998311412171,-4.615570795058078e-10,5.3304847850504784e-08,-4.989105567346039e-08,0.9999999999999973,0.0;0.0;0.0;0.0;0.0;0.0;0.0;0.0;0.0,7.621289842063561e-05;0.0;0.0;0.0;7.621289842063561e-05;0.0;0.0;0.0;7.621289842063561e-05,3.999999975690116e-08;0.0;0.0;0.0;3.999999975690116e-08;0.0;0.0;0.0;3.999999975690116e-08
139,80000000,139.08,imu_link,0.009394591805136973,-0.01015545863346099,0.02088737622181997,7.45801332229776e-05,-0.00017995773521352993,9.799943697182654,-4.615570795382713e-10,5.330484785066783e-08,-4.9891055673464244e-08,0.9999999999999973,0.0;0.0;0.0;0.0;0.0;0.0;0.0;0.0;0.0,7.621289842063561e-05;0.0;0.0;0.0;7.621289842063561e-05;0.0;0.0;0.0;7.621289842063561e-05,3.999999975690116e-08;0.0;0.0;0.0;3.999999975690116e-08;0.0;0.0;0.0;3.999999975690116e-08
139,100000000,139.1,imu_link,0.007156680762910829,0.004153927073162077,0.0048354820903993324,-7.429826842371842e-05,0.0003777733793426338,9.799960185968887,-4.6155707958739975e-10,5.330484785036926e-08,-4.9891055673467996e-08,0.9999999999999973,0.0;0.0;0.0;0.0;0.0;0.0;0.0;0.0;0.0,7.621289842063561e-05;0.0;0.0;0.0;7.621289842063561e-05;0.0;0.0;0.0;7.621289842063561e-05,3.999999975690116e-08;0.0;0.0;0.0;3.999999975690116e-08;0.0;0.0;0.0;3.999999975690116e-08
139,120000000,139.12,imu_link,0.0021919375578350253,0.018009336563938157,-0.0021684642599857726,0.0002710422280524182,-0.0001519014537915482,9.800116218977596,-4.615570795215967e-10,5.3304847850481365e-08,-4.989105567347246e-08,0.9999999999999973,0.0;0.0;0.0;0.0;0.0;0.0;0.0;0.0;0.0,7.621289842063561e-05;0.0;0.0;0.0;7.621289842063561e-05;0.0;0.0;0.0;7.621289842063561e-05,3.999999975690116e-08;0.0;0.0;0.0;3.999999975690116e-08;0.0;0.0;0.0;3.999999975690116e-08
139,140000000,139.14,imu_link,-0.0017426258995468233,-6.832203605664758e-05,0.005682956941919834,0.0004906970781445866,0.00023576110575290407,9.800141227216379,-4.6155707956734047e-10,5.330484785064139e-08,-4.9891055673477406e-08,0.9999999999999973,0.0;0.0;0.0;0.0;0.0;0.0;0.0;0.0;0.0,7.621289842063561e-05;0.0;0.0;0.0;7.621289842063561e-05;0.0;0.0;0.0;7.621289842063561e-05,3.999999975690116e-08;0.0;0.0;0.0;3.999999975690116e-08;0.0;0.0;0.0;3.999999975690116e-08
139,160000000,139.16,imu_link,-0.010142570955829091,-0.008223892058503192,0.0235891840000058,7.871043973572927e-05,-0.00023041243816450635,9.800195555025095,-4.615570793766132e-10,5.33048478502899e-08,-4.9891055673482495e-08,0.9999999999999973,0.0;0.0;0.0;0.0;0.0;0.0;0.0;0.0;0.0,7.621289842063561e-05;0.0;0.0;0.0;7.621289842063561e-05;0.0;0.0;0.0;7.621289842063561e-05,3.999999975690116e-08;0.0;0.0;0.0;3.999999975690116e-08;0.0;0.0;0.0;3.999999975690116e-08
139,180000000,139.18,imu_link,-0.0003956622226115931,-0.009710505674105752,0.01960486886570964,5.3416605132021055e-05,-0.0005126139181740762,9.799870878788077,-4.615570794191131e-10,5.330484785044949e-08,-4.989105567348873e-08,0.9999999999999973,0.0;0.0;0.0;0.0;0.0;0.0;0.0;0.0;0.0,7.621289842063561e-05;0.0;0.0;0.0;7.621289842063561e-05;0.0;0.0;0.0;7.621289842063561e-05,3.999999975690116e-08;0.0;0.0;0.0;3.999999975690116e-08;0.0;0.0;0.0;3.999999975690116e-08
139,200000000,139.2,imu_link,-0.001354025879102804,-0.018277079549446237,0.007525344694621372,0.0002715211496950144,-0.0002573180208163603,9.80011792523858,-4.6155707945250996e-10,5.330484785061557e-08,-4.989105567349539e-08,0.9999999999999973,0.0;0.0;0.0;0.0;0.0;0.0;0.0;0.0;0.0,7.621289842063561e-05;0.0;0.0;0.0;7.621289842063561e-05;0.0;0.0;0.0;7.621289842063561e-05,3.999999975690116e-08;0.0;0.0;0.0;3.999999975690116e-08;0.0;0.0;0.0;3.999999975690116e-08
139,220000000,139.22,imu_link,0.008264986711586037,0.001945800213595005,0.007491740009868079,0.0003111290131846766,5.266233375496425e-05,9.799949982889476,-4.615570795004706e-10,5.330484785077601e-08,-4.9891055673502744e-08,0.9999999999999973,0.0;0.0;0.0;0.0;0.0;0.0;0.0;0.0;0.0,7.621289842063561e-05;0.0;0.0;0.0;7.621289842063561e-05;0.0;0.0;0.0;7.621289842063561e-05,3.999999975690116e-08;0.0;0.0;0.0;3.999999975690116e-08;0.0;0.0;0.0;3.999999975690116e-08
139,240000000,139.24,imu_link,-0.0023089218243499687,0.013982618000423955,0.0009331069171611833,0.00023254381144360321,-0.00029051564117442375,9.800054639058482,-4.615570795612007e-10,5.330484785029788e-08,-4.9891055673508925e-08,0.9999999999999973,0.0;0.0;0.0;0.0;0.0;0.0;0.0;0.0;0.0,7.621289842063561e-05;0.0;0.0;0.0;7.621289842063561e-05;0.0;0.0;0.0;7.621289842063561e-05,3.999999975690116e-08;0.0;0.0;0.0;3.999999975690116e-08;0.0;0.0;0.0;3.999999975690116e-08
139,260000000,139.26,imu_link,-0.008877325375665594,0.012046412553191789,0.0014185088959057322,-0.00014744985309653457,0.00014394764473542326,9.799897493331866,-4.615570796005575e-10,5.3304847850469605e-08,-4.989105567351728e-08,0.9999999999999973,0.0;0.0;0.0;0.0;0.0;0.0;0.0;0.0;0.0,7.621289842063561e-05;0.0;0.0;0.0;7.621289842063561e-05;0.0;0.0;0.0;7.621289842063561e-05,3.999999975690116e-08;0.0;0.0;0.0;3.999999975690116e-08;0.0;0.0;0.0;3.999999975690116e-08
139,280000000,139.28,imu_link,0.012038814506000582,-0.004009537998991749,0.0016316249947292798,0.00012349270663814478,0.0002052206739294682,9.800092060899674,-4.6155707937660715e-10,5.33048478505919e-08,-4.9891055673523894e-08,0.9999999999999973,0.0;0.0;0.0;0.0;0.0;0.0;0.0;0.0;0.0,7.621289842063561e-05;0.0;0.0;0.0;7.621289842063561e-05;0.0;0.0;0.0;7.621289842063561e-05,3.999999975690116e-08;0.0;0.0;0.0;3.999999975690116e-08;0.0;0.0;0.0;3.999999975690116e-08
139,300000000,139.3,imu_link,0.0063046995203836645,-0.00011680601468938311,0.0029585757109679605,0.00019595677067176843,-0.0001704412617671325,9.799953463392043,-4.6155707951664603e-10,5.3304847850821084e-08,-4.9891055673531444e-08,0.9999999999999973,0.0;0.0;0.0;0.0;0.0;0.0;0.0;0.0;0.0,7.621289842063561e-05;0.0;0.0;0.0;7.621289842063561e-05;0.0;0.0;0.0;7.621289842063561e-05,3.999999975690116e-08;0.0;0.0;0.0;3.999999975690116e-08;0.0;0.0;0.0;3.999999975690116e-08
139,320000000,139.32,imu_link,0.010349069642073222,0.004954748574497474,0.011787425943494042,0.00020427376475441175,-4.5135048183086814e-05,9.800133060847248,-4.6155707949367533e-10,5.330484785028247e-08,-4.9891055673537486e-08,0.9999999999999973,0.0;0.0;0.0;0.0;0.0;0.0;0.0;0.0;0.0,7.621289842063561e-05;0.0;0.0;0.0;7.621289842063561e-05;0.0;0.0;0.0;7.621289842063561e-05,3.999999975690116e-08;0.0;0.0;0.0;3.999999975690116e-08;0.0;0.0;0.0;3.999999975690116e-08
139,340000000,139.34,imu_link,0.0051679562483394545,-0.005895281431167388,0.003782702033706344,-7.10080371501443e-05,0.0003029272350836092,9.800162661810532,-4.615570795384556e-10,5.330484785043926e-08,-4.989105567354589e-08,0.9999999999999973,0.0;0.0;0.0;0.0;0.0;0.0;0.0;0.0;0.0,7.621289842063561e-05;0.0;0.0;0.0;7.621289842063561e-05;0.0;0.0;0.0;7.621289842063561e-05,3.999999975690116e-08;0.0;0.0;0.0;3.999999975690116e-08;0.0;0.0;0.0;3.999999975690116e-08
139,360000000,139.36,imu_link,-0.002662212286577521,-0.004139724293770901,0.013112600786617282,0.00027584610136598364,0.00023894841387129176,9.800339479359312,-4.615570795804106e-10,5.33048478505919e-08,-4.989105567355378e-08,0.9999999999999973,0.0;0.0;0.0;0.0;0.0;0.0;0.0;0.0;0.0,7.621289842063561e-05;0.0;0.0;0.0;7.621289842063561e-05;0.0;0.0;0.0;7.621289842063561e-05,3.999999975690116e-08;0.0;0.0;0.0;3.999999975690116e-08;0.0;0.0;0.0;3.999999975690116e-08
139,380000000,139.38,imu_link,-0.0017756027273574866,0.014652481167091868,0.007450634266683344,5.517153886028061e-06,-0.000128811887536881,9.799573651869347,-4.615570794776137e-10,5.330484785077297e-08,-4.989105567356241e-08,0.9999999999999973,0.0;0.0;0.0;0.0;0.0;0.0;0.0;0.0;0.0,7.621289842063561e-05;0.0;0.0;0.0;7.621289842063561e-05;0.0;0.0;0.0;7.621289842063561e-05,3.999999975690116e-08;0.0;0.0;0.0;3.999999975690116e-08;0.0;0.0;0.0;3.999999975690116e-08
139,400000000,139.4,imu_link,0.014895357133554249,0.015992053037950364,0.0194956200985826,0.0003074414541316636,-0.0001502585545415336,9.799935637840901,-4.6155707939971175e-10,5.3304847850406277e-08,-4.9891055673570255e-08,0.9999999999999973,0.0;0.0;0.0;0.0;0.0;0.0;0.0;0.0;0.0,7.621289842063561e-05;0.0;0.0;0.0;7.621289842063561e-05;0.0;0.0;0.0;7.621289842063561e-05,3.999999975690116e-08;0.0;0.0;0.0;3.999999975690116e-08;0.0;0.0;0.0;3.999999975690116e-08
139,420000000,139.42,imu_link,-0.0016219204466176088,0.0031198237286820378,0.007151511521753622,0.0004725997144107556,0.0001553510622639755,9.800122617461753,-4.615570795814514e-10,5.330484785055677e-08,-4.9891055673577e-08,0.9999999999999973,0.0;0.0;0.0;0.0;0.0;0.0;0.0;0.0;0.0,7.621289842063561e-05;0.0;0.0;0.0;7.621289842063561e-05;0.0;0.0;0.0;7.621289842063561e-05,3.999999975690116e-08;0.0;0.0;0.0;3.999999975690116e-08;0.0;0.0;0.0;3.999999975690116e-08
139,440000000,139.44,imu_link,-0.011477422272885018,-0.010248596443521711,-0.0005190263841764048,0.0005124612069593276,0.00011114735997389906,9.799967989625324,-4.615570795038059e-10,5.330484785066063e-08,-4.9891055673584926e-08,0.9999999999999973,0.0;0.0;0.0;0.0;0.0;0.0;0.0;0.0;0.0,7.621289842063561e-05;0.0;0.0;0.0;7.621289842063561e-05;0.0;0.0;0.0;7.621289842063561e-05,3.999999975690116e-08;0.0;0.0;0.0;3.999999975690116e-08;0.0;0.0;0.0;3.999999975690116e-08
139,460000000,139.46,imu_link,0.003743315135643701,0.010533022173460211,0.01279729397362172,-0.00020043258922423262,-0.00012213406482630178,9.800024657657126,-4.6155707954925525e-10,5.330484785030173e-08,-4.9891055673590015e-08,0.9999999999999973,0.0;0.0;0.0;0.0;0.0;0.0;0.0;0.0;0.0,7.621289842063561e-05;0.0;0.0;0.0;7.621289842063561e-05;0.0;0.0;0.0;7.621289842063561e-05,3.999999975690116e-08;0.0;0.0;0.0;3.999999975690116e-08;0.0;0.0;0.0;3.999999975690116e-08
139,480000000,139.48,imu_link,0.006762487982625109,0.0032992982175433566,0.031810699942653335,-0.00043344793919036816,-1.9961462296061886e-05,9.800548351019222,-4.6155707959594086e-10,5.330484785045546e-08,-4.9891055673598293e-08,0.9999999999999973,0.0;0.0;0.0;0.0;0.0;0.0;0.0;0.0;0.0,7.621289842063561e-05;0.0;0.0;0.0;7.621289842063561e-05;0.0;0.0;0.0;7.621289842063561e-05,3.999999975690116e-08;0.0;0.0;0.0;3.999999975690116e-08;0.0;0.0;0.0;3.999999975690116e-08
139,500000000,139.5,imu_link,0.008234800157329764,-0.007065913304327101,0.0022183972094624253,-1.4235272508243295e-05,-0.00021621181247927977,9.800272035332664,-4.615570793868285e-10,5.330484785056776e-08,-4.9891055673606135e-08,0.9999999999999973,0.0;0.0;0.0;0.0;0.0;0.0;0.0;0.0;0.0,7.621289842063561e-05;0.0;0.0;0.0;7.621289842063561e-05;0.0;0.0;0.0;7.621289842063561e-05,3.999999975690116e-08;0.0;0.0;0.0;3.999999975690116e-08;0.0;0.0;0.0;3.999999975690116e-08
139,520000000,139.52,imu_link,-0.0037694115407602945,0.002179257756926895,-0.00018779909871518945,-0.0002529604508852298,-0.00019434556945517674,9.800105180176338,-4.6155707952278847e-10,5.330484785078137e-08,-4.989105567361361e-08,0.9999999999999973,0.0;0.0;0.0;0.0;0.0;0.0;0.0;0.0;0.0,7.621289842063561e-05;0.0;0.0;0.0;7.621289842063561e-05;0.0;0.0;0.0;7.621289842063561e-05,3.999999975690116e-08;0.0;0.0;0.0;3.999999975690116e-08;0.0;0.0;0.0;3.999999975690116e-08
139,540000000,139.54,imu_link,0.010368258788419094,0.007714962266485874,0.009613396413733209,0.0002019122790746025,9.821194356815049e-05,9.800001269211643,-4.6155707946150865e-10,5.330484785087678e-08,-4.9891055673620614e-08,0.9999999999999973,0.0;0.0;0.0;0.0;0.0;0.0;0.0;0.0;0.0,7.621289842063561e-05;0.0;0.0;0.0;7.621289842063561e-05;0.0;0.0;0.0;7.621289842063561e-05,3.999999975690116e-08;0.0;0.0;0.0;3.999999975690116e-08;0.0;0.0;0.0;3.999999975690116e-08
139,560000000,139.56,imu_link,-0.005468895691837163,0.009034688246762679,0.0028965148854853476,0.0001516139448684602,-0.00014429214367762464,9.800042765076242,-4.6155707938131815e-10,5.330484785039908e-08,-4.989105567362475e-08,0.9999999999999973,0.0;0.0;0.0;0.0;0.0;0.0;0.0;0.0;0.0,7.621289842063561e-05;0.0;0.0;0.0;7.621289842063561e-05;0.0;0.0;0.0;7.621289842063561e-05,3.999999975690116e-08;0.0;0.0;0.0;3.999999975690116e-08;0.0;0.0;0.0;3.999999975690116e-08
139,580000000,139.58,imu_link,-0.00413057229474078,-0.001818913937662066,0.01603347020734616,0.00013052388119147833,-0.00030068329035946536,9.800080404152002,-4.615570793978838e-10,5.330484785057143e-08,-4.989105567362829e-08,0.9999999999999973,0.0;0.0;0.0;0.0;0.0;0.0;0.0;0.0;0.0,7.621289842063561e-05;0.0;0.0;0.0;7.621289842063561e-05;0.0;0.0;0.0;7.621289842063561e-05,3.999999975690116e-08;0.0;0.0;0.0;3.999999975690116e-08;0.0;0.0;0.0;3.999999975690116e-08
139,600000000,139.6,imu_link,0.00315412821143238,0.016096902260120716,0.023984363154888944,0.00015459684945293723,-0.00032688024542070913,9.800442762438866,-4.615570795552428e-10,5.33048478502518e-08,-4.989105567363351e-08,0.9999999999999973,0.0;0.0;0.0;0.0;0.0;0.0;0.0;0.0;0.0,7.621289842063561e-05;0.0;0.0;0.0;7.621289842063561e-05;0.0;0.0;0.0;7.621289842063561e-05,3.999999975690116e-08;0.0;0.0;0.0;3.999999975690116e-08;0.0;0.0;0.0;3.999999975690116e-08
139,620000000,139.62,imu_link,-0.014600285177047125,-0.0023946960200777337,0.002613264210764913,0.00014894194555467507,-6.8671329806591e-05,9.80039422882767,-4.6155707959171453e-10,5.330484785040878e-08,-4.9891055673637184e-08,0.9999999999999973,0.0;0.0;0.0;0.0;0.0;0.0;0.0;0.0;0.0,7.621289842063561e-05;0.0;0.0;0.0;7.621289842063561e-05;0.0;0.0;0.0;7.621289842063561e-05,3.999999975690116e-08;0.0;0.0;0.0;3.999999975690116e-08;0.0;0.0;0.0;3.999999975690116e-08
139,640000000,139.64,imu_link,-0.001679436837276037,0.008766196978196557,0.019661647293893685,0.00041016866664686914,-0.00016550046942885685,9.800202002510723,-4.6155707938945714e-10,5.3304847850514816e-08,-4.9891055673640255e-08,0.9999999999999973,0.0;0.0;0.0;0.0;0.0;0.0;0.0;0.0;0.0,7.621289842063561e-05;0.0;0.0;0.0;7.621289842063561e-05;0.0;0.0;0.0;7.621289842063561e-05,3.999999975690116e-08;0.0;0.0;0.0;3.999999975690116e-08;0.0;0.0;0.0;3.999999975690116e-08
139,660000000,139.66,imu_link,0.01023291318130262,-0.012949073413412795,0.0004328365616096102,0.00019782658845267473,-0.0003537192975599297,9.80063249288926,-4.615570795718323e-10,5.330484785066421e-08,-4.989105567364374e-08,0.9999999999999973,0.0;0.0;0.0;0.0;0.0;0.0;0.0;0.0;0.0,7.621289842063561e-05;0.0;0.0;0.0;7.621289842063561e-05;0.0;0.0;0.0;7.621289842063561e-05,3.999999975690116e-08;0.0;0.0;0.0;3.999999975690116e-08;0.0;0.0;0.0;3.999999975690116e-08
139,680000000,139.68,imu_link,0.007107253596633451,-0.005922063271700582,0.021785999718857193,0.0001179929104403129,-0.00015205505656409147,9.799851741837593,-4.615570793837272e-10,5.33048478503112e-08,-4.989105567364777e-08,0.9999999999999973,0.0;0.0;0.0;0.0;0.0;0.0;0.0;0.0;0.0,7.621289842063561e-05;0.0;0.0;0.0;7.621289842063561e-05;0.0;0.0;0.0;7.621289842063561e-05,3.999999975690116e-08;0.0;0.0;0.0;3.999999975690116e-08;0.0;0.0;0.0;3.999999975690116e-08
139,700000000,139.7,imu_link,0.01466433471617857,0.00445186186325982,0.0031732855760980786,-0.00015335908412880336,-0.00033483843865073575,9.800114165446695,-4.615570795680895e-10,5.330484785034719e-08,-4.98910556736504e-08,0.9999999999999973,0.0;0.0;0.0;0.0;0.0;0.0;0.0;0.0;0.0,7.621289842063561e-05;0.0;0.0;0.0;7.621289842063561e-05;0.0;0.0;0.0;7.621289842063561e-05,3.999999975690116e-08;0.0;0.0;0.0;3.999999975690116e-08;0.0;0.0;0.0;3.999999975690116e-08
139,720000000,139.72,imu_link,0.022733732686182517,0.0118256907781375,0.010503212099992628,0.00012215868552623745,-0.00018497546181292946,9.800245241978528,-4.615570794720687e-10,5.330484785064359e-08,-4.9891055673656084e-08,0.9999999999999973,0.0;0.0;0.0;0.0;0.0;0.0;0.0;0.0;0.0,7.621289842063561e-05;0.0;0.0;0.0;7.621289842063561e-05;0.0;0.0;0.0;7.621289842063561e-05,3.999999975690116e-08;0.0;0.0;0.0;3.999999975690116e-08;0.0;0.0;0.0;3.999999975690116e-08
139,740000000,139.74,imu_link,0.0009751541710218188,-0.009559027055652333,0.010331178911713718,0.00023015924917940326,8.024253965031834e-05,9.800141051596574,-4.615570795170286e-10,5.3304847850802324e-08,-4.989105567366027e-08,0.9999999999999973,0.0;0.0;0.0;0.0;0.0;0.0;0.0;0.0;0.0,7.621289842063561e-05;0.0;0.0;0.0;7.621289842063561e-05;0.0;0.0;0.0;7.621289842063561e-05,3.999999975690116e-08;0.0;0.0;0.0;3.999999975690116e-08;0.0;0.0;0.0;3.999999975690116e-08
139,760000000,139.76,imu_link,0.0054166599021966515,-0.004430996588311722,0.010461595563480051,0.0002923359591009021,-0.0003457394146977679,9.80022176364759,-4.6155707948278943e-10,5.330484785024439e-08,-4.989105567366628e-08,0.9999999999999973,0.0;0.0;0.0;0.0;0.0;0.0;0.0;0.0;0.0,7.621289842063561e-05;0.0;0.0;0.0;7.621289842063561e-05;0.0;0.0;0.0;7.621289842063561e-05,3.999999975690116e-08;0.0;0.0;0.0;3.999999975690116e-08;0.0;0.0;0.0;3.999999975690116e-08
139,780000000,139.78,imu_link,0.004115726320797035,-0.0028850965713057334,0.00669139730064088,0.00012791859211337456,-5.505767285872295e-05,9.800205377803161,-4.61557079613214e-10,5.330484785046318e-08,-4.989105567367072e-08,0.9999999999999973,0.0;0.0;0.0;0.0;0.0;0.0;0.0;0.0;0.0,7.621289842063561e-05;0.0;0.0;0.0;7.621289842063561e-05;0.0;0.0;0.0;7.621289842063561e-05,3.999999975690116e-08;0.0;0.0;0.0;3.999999975690116e-08;0.0;0.0;0.0;3.999999975690116e-08
139,800000000,139.8,imu_link,-0.012877601937562499,-0.002388455564751431,0.006753439733352545,-0.0003857143504936651,0.00016154228468011117,9.800376371682187,-4.615570795459977e-10,5.330484785056597e-08,-4.989105567367715e-08,0.9999999999999973,0.0;0.0;0.0;0.0;0.0;0.0;0.0;0.0;0.0,7.621289842063561e-05;0.0;0.0;0.0;7.621289842063561e-05;0.0;0.0;0.0;7.621289842063561e-05,3.999999975690116e-08;0.0;0.0;0.0;3.999999975690116e-08;0.0;0.0;0.0;3.999999975690116e-08
139,820000000,139.82,imu_link,-0.0013567589559448962,-0.011155241526351108,0.007434476616848255,0.00031834885708213636,4.457577508818736e-05,9.800183470775092,-4.6155707968478187e-10,5.330484785090404e-08,-4.9891055673683685e-08,0.9999999999999973,0.0;0.0;0.0;0.0;0.0;0.0;0.0;0.0;0.0,7.621289842063561e-05;0.0;0.0;0.0;7.621289842063561e-05;0.0;0.0;0.0;7.621289842063561e-05,3.999999975690116e-08;0.0;0.0;0.0;3.999999975690116e-08;0.0;0.0;0.0;3.999999975690116e-08
139,840000000,139.84,imu_link,0.005889122804764488,0.005897230275332563,0.017004100717312627,0.00021759210921162495,4.056769150232165e-05,9.80024837824395,-4.61557079461958e-10,5.330484785089428e-08,-4.989105567368842e-08,0.9999999999999973,0.0;0.0;0.0;0.0;0.0;0.0;0.0;0.0;0.0,7.621289842063561e-05;0.0;0.0;0.0;7.621289842063561e-05;0.0;0.0;0.0;7.621289842063561e-05,3.999999975690116e-08;0.0;0.0;0.0;3.999999975690116e-08;0.0;0.0;0.0;3.999999975690116e-08
139,860000000,139.86,imu_link,0.0075003456080330174,0.014268177787800793,0.008446664839369152,0.0001194503211631297,0.00020394399757780378,9.800091998580891,-4.6155707937796207e-10,5.330484785052218e-08,-4.98910556736949e-08,0.9999999999999973,0.0;0.0;0.0;0.0;0.0;0.0;0.0;0.0;0.0,7.621289842063561e-05;0.0;0.0;0.0;7.621289842063561e-05;0.0;0.0;0.0;7.621289842063561e-05,3.999999975690116e-08;0.0;0.0;0.0;3.999999975690116e-08;0.0;0.0;0.0;3.999999975690116e-08
139,880000000,139.88,imu_link,0.0018634254934501483,0.006344895600558933,0.009827554789700491,0.000292455228993706,-0.0005760207565582888,9.80024203972381,-4.6155707944714415e-10,5.3304847850674826e-08,-4.989105567370285e-08,0.9999999999999973,0.0;0.0;0.0;0.0;0.0;0.0;0.0;0.0;0.0,7.621289842063561e-05;0.0;0.0;0.0;7.621289842063561e-05;0.0;0.0;0.0;7.621289842063561e-05,3.999999975690116e-08;0.0;0.0;0.0;3.999999975690116e-08;0.0;0.0;0.0;3.999999975690116e-08
139,900000000,139.9,imu_link,0.0024821830695825023,-0.0013995476694678884,0.010787149340782357,0.0003496674426649055,-0.0004523350541280445,9.799930945449349,-4.6155707938441356e-10,5.330484785078088e-08,-4.98910556737095e-08,0.9999999999999973,0.0;0.0;0.0;0.0;0.0;0.0;0.0;0.0;0.0,7.621289842063561e-05;0.0;0.0;0.0;7.621289842063561e-05;0.0;0.0;0.0;7.621289842063561e-05,3.999999975690116e-08;0.0;0.0;0.0;3.999999975690116e-08;0.0;0.0;0.0;3.999999975690116e-08
139,920000000,139.92,imu_link,0.007153823474149493,-0.0014399548203888866,0.005010442972149715,-1.4465966982543169e-05,0.00019899622455060102,9.800355802879828,-4.615570794127785e-10,5.330484785046667e-08,-4.989105567371516e-08,0.9999999999999973,0.0;0.0;0.0;0.0;0.0;0.0;0.0;0.0;0.0,7.621289842063561e-05;0.0;0.0;0.0;7.621289842063561e-05;0.0;0.0;0.0;7.621289842063561e-05,3.999999975690116e-08;0.0;0.0;0.0;3.999999975690116e-08;0.0;0.0;0.0;3.999999975690116e-08
139,940000000,139.94,imu_link,0.00832941757758159,-0.0076902733294273344,0.014790360638404602,0.0001782083005843375,-2.322126208509748e-05,9.800039386366404,-4.6155707945933126e-10,5.3304847850628636e-08,-4.9891055673722774e-08,0.9999999999999973,0.0;0.0;0.0;0.0;0.0;0.0;0.0;0.0;0.0,7.621289842063561e-05;0.0;0.0;0.0;7.621289842063561e-05;0.0;0.0;0.0;7.621289842063561e-05,3.999999975690116e-08;0.0;0.0;0.0;3.999999975690116e-08;0.0;0.0;0.0;3.999999975690116e-08
139,960000000,139.96,imu_link,-0.007914867548308552,0.00039755947684460733,0.004637590522623053,0.00026095928498740505,-0.0004706919041728824,9.79987231747038,-4.6155707949507254e-10,5.330484785076938e-08,-4.989105567373175e-08,0.9999999999999973,0.0;0.0;0.0;0.0;0.0;0.0;0.0;0.0;0.0,7.621289842063561e-05;0.0;0.0;0.0;7.621289842063561e-05;0.0;0.0;0.0;7.621289842063561e-05,3.999999975690116e-08;0.0;0.0;0.0;3.999999975690116e-08;0.0;0.0;0.0;3.999999975690116e-08
139,980000000,139.98,imu_link,0.002880660514035588,0.00048077794227142467,0.012616698499009663,-6.491852000975333e-05,0.00018728658626912667,9.800120736722558,-4.6155707968331016e-10,5.3304847850922695e-08,-4.9891055673741396e-08,0.9999999999999973,0.0;0.0;0.0;0.0;0.0;0.0;0.0;0.0;0.0,7.621289842063561e-05;0.0;0.0;0.0;7.621289842063561e-05;0.0;0.0;0.0;7.621289842063561e-05,3.999999975690116e-08;0.0;0.0;0.0;3.999999975690116e-08;0.0;0.0;0.0;3.999999975690116e-08
140,0,140.0,imu_link,-0.005193004990289098,0.014614082606737704,0.022956669379978555,-2.0651564138162294e-05,-0.00033007249387276126,9.799981847835832,-4.61557079602289e-10,5.330484785056662e-08,-4.989105567375026e-08,0.9999999999999973,0.0;0.0;0.0;0.0;0.0;0.0;0.0;0.0;0.0,7.621289842063561e-05;0.0;0.0;0.0;7.621289842063561e-05;0.0;0.0;0.0;7.621289842063561e-05,3.999999975690116e-08;0.0;0.0;0.0;3.999999975690116e-08;0.0;0.0;0.0;3.999999975690116e-08
140,20000000,140.02,imu_link,0.0023683692921230865,0.005662778451089684,0.010952120453336092,0.00018767677789743176,-7.237788119901303e-05,9.800029471421059,-4.615570796555286e-10,5.3304847850678505e-08,-4.989105567376191e-08,0.9999999999999973,0.0;0.0;0.0;0.0;0.0;0.0;0.0;0.0;0.0,7.621289842063561e-05;0.0;0.0;0.0;7.621289842063561e-05;0.0;0.0;0.0;7.621289842063561e-05,3.999999975690116e-08;0.0;0.0;0.0;3.999999975690116e-08;0.0;0.0;0.0;3.999999975690116e-08
140,40000000,140.04,imu_link,0.00680793616332502,-0.000220204279862895,0.0047217305795775495,-0.00014147246655245283,-0.0003057982426530794,9.80043737084775,-4.615570794448871e-10,5.330484785079147e-08,-4.9891055673769924e-08,0.9999999999999973,0.0;0.0;0.0;0.0;0.0;0.0;0.0;0.0;0.0,7.621289842063561e-05;0.0;0.0;0.0;7.621289842063561e-05;0.0;0.0;0.0;7.621289842063561e-05,3.999999975690116e-08;0.0;0.0;0.0;3.999999975690116e-08;0.0;0.0;0.0;3.999999975690116e-08
140,60000000,140.06,imu_link,0.003244311453263354,-0.003091757779970202,0.018682074794319957,-4.5958527532385785e-05,-0.00020056865112385574,9.800231514013564,-4.6155707937769525e-10,5.330484785030575e-08,-4.9891055673779e-08,0.9999999999999973,0.0;0.0;0.0;0.0;0.0;0.0;0.0;0.0;0.0,7.621289842063561e-05;0.0;0.0;0.0;7.621289842063561e-05;0.0;0.0;0.0;7.621289842063561e-05,3.999999975690116e-08;0.0;0.0;0.0;3.999999975690116e-08;0.0;0.0;0.0;3.999999975690116e-08
140,80000000,140.08,imu_link,-0.002753754951357811,-0.013209321365175213,0.00649844102391039,4.36424624159115e-05,0.0001958910840389801,9.799977654893459,-4.6155707940234916e-10,5.330484785047032e-08,-4.989105567378826e-08,0.9999999999999973,0.0;0.0;0.0;0.0;0.0;0.0;0.0;0.0;0.0,7.621289842063561e-05;0.0;0.0;0.0;7.621289842063561e-05;0.0;0.0;0.0;7.621289842063561e-05,3.999999975690116e-08;0.0;0.0;0.0;3.999999975690116e-08;0.0;0.0;0.0;3.999999975690116e-08
140,100000000,140.1,imu_link,-0.011709786612860328,-0.018615697743145008,0.007272133301872508,0.0005660572531816911,-0.00019514093884822508,9.800297707607688,-4.6155707956048045e-10,5.330484785060108e-08,-4.989105567380113e-08,0.9999999999999973,0.0;0.0;0.0;0.0;0.0;0.0;0.0;0.0;0.0,7.621289842063561e-05;0.0;0.0;0.0;7.621289842063561e-05;0.0;0.0;0.0;7.621289842063561e-05,3.999999975690116e-08;0.0;0.0;0.0;3.999999975690116e-08;0.0;0.0;0.0;3.999999975690116e-08
140,120000000,140.12,imu_link,0.017129429133789193,-0.018422424122497012,0.015003980524697275,-7.773076115435099e-05,4.127212776957103e-05,9.800214911920014,-4.615570794426474e-10,5.330484785088969e-08,-4.98910556738101e-08,0.9999999999999973,0.0;0.0;0.0;0.0;0.0;0.0;0.0;0.0;0.0,7.621289842063561e-05;0.0;0.0;0.0;7.621289842063561e-05;0.0;0.0;0.0;7.621289842063561e-05,3.999999975690116e-08;0.0;0.0;0.0;3.999999975690116e-08;0.0;0.0;0.0;3.999999975690116e-08
140,140000000,140.14,imu_link,-0.0024013644863982216,-0.009028494659650539,0.010880206442933317,0.00020969429401154348,-4.4947595671012206e-06,9.7997658823231,-4.6155707953073416e-10,5.3304847850393366e-08,-4.9891055673820236e-08,0.9999999999999973,0.0;0.0;0.0;0.0;0.0;0.0;0.0;0.0;0.0,7.621289842063561e-05;0.0;0.0;0.0;7.621289842063561e-05;0.0;0.0;0.0;7.621289842063561e-05,3.999999975690116e-08;0.0;0.0;0.0;3.999999975690116e-08;0.0;0.0;0.0;3.999999975690116e-08
140,160000000,140.16,imu_link,0.0008829020641027001,-0.0040200180271934,-0.00958003394029404,2.8138356016032932e-06,-1.760198302530658e-05,9.800294539141575,-4.615570795712162e-10,5.330484785055277e-08,-4.9891055673830255e-08,0.9999999999999973,0.0;0.0;0.0;0.0;0.0;0.0;0.0;0.0;0.0,7.621289842063561e-05;0.0;0.0;0.0;7.621289842063561e-05;0.0;0.0;0.0;7.621289842063561e-05,3.999999975690116e-08;0.0;0.0;0.0;3.999999975690116e-08;0.0;0.0;0.0;3.999999975690116e-08
140,180000000,140.18,imu_link,0.010794896707146893,-0.006824511863932969,-0.0034133546455699885,0.00028545436903663294,-8.972879152017738e-05,9.799954150405195,-4.615570796062062e-10,5.3304847850697385e-08,-4.9891055673840644e-08,0.9999999999999973,0.0;0.0;0.0;0.0;0.0;0.0;0.0;0.0;0.0,7.621289842063561e-05;0.0;0.0;0.0;7.621289842063561e-05;0.0;0.0;0.0;7.621289842063561e-05,3.999999975690116e-08;0.0;0.0;0.0;3.999999975690116e-08;0.0;0.0;0.0;3.999999975690116e-08
140,200000000,140.2,imu_link,-1.246312137416527e-05,-0.015465444558448492,0.004572720234376623,0.0003413268083338922,-0.0004557789561260448,9.799800956115282,-4.615570793798064e-10,5.3304847850336985e-08,-4.989105567385098e-08,0.9999999999999973,0.0;0.0;0.0;0.0;0.0;0.0;0.0;0.0;0.0,7.621289842063561e-05;0.0;0.0;0.0;7.621289842063561e-05;0.0;0.0;0.0;7.621289842063561e-05,3.999999975690116e-08;0.0;0.0;0.0;3.999999975690116e-08;0.0;0.0;0.0;3.999999975690116e-08
140,220000000,140.22,imu_link,0.003028061337922323,0.0032296121568273577,0.009118236962775191,0.00030519315711716405,-0.00022870025385661236,9.800137560775607,-4.6155707942328205e-10,5.330484785048919e-08,-4.9891055673861224e-08,0.9999999999999973,0.0;0.0;0.0;0.0;0.0;0.0;0.0;0.0;0.0,7.621289842063561e-05;0.0;0.0;0.0;7.621289842063561e-05;0.0;0.0;0.0;7.621289842063561e-05,3.999999975690116e-08;0.0;0.0;0.0;3.999999975690116e-08;0.0;0.0;0.0;3.999999975690116e-08
140,240000000,140.24,imu_link,0.002565305903272397,-0.004002384383259047,0.005664230507328855,0.00013881615614818856,-8.470685091532351e-06,9.799867934485873,-4.61557079469063e-10,5.330484785064421e-08,-4.989105567387014e-08,0.9999999999999973,0.0;0.0;0.0;0.0;0.0;0.0;0.0;0.0;0.0,7.621289842063561e-05;0.0;0.0;0.0;7.621289842063561e-05;0.0;0.0;0.0;7.621289842063561e-05,3.999999975690116e-08;0.0;0.0;0.0;3.999999975690116e-08;0.0;0.0;0.0;3.999999975690116e-08
140,260000000,140.26,imu_link,-0.004846520825354029,-0.01843434819842229,0.008696821836449915,0.00022042473271048212,-0.00023079791551162068,9.8000757198927,-4.6155707949254995e-10,5.330484785080034e-08,-4.989105567387574e-08,0.9999999999999973,0.0;0.0;0.0;0.0;0.0;0.0;0.0;0.0;0.0,7.621289842063561e-05;0.0;0.0;0.0;7.621289842063561e-05;0.0;0.0;0.0;7.621289842063561e-05,3.999999975690116e-08;0.0;0.0;0.0;3.999999975690116e-08;0.0;0.0;0.0;3.999999975690116e-08
140,280000000,140.28,imu_link,-0.00016907849264024253,0.006917268589466218,0.003475018082634315,0.00027404508562705227,3.586711128715786e-05,9.800203431905384,-4.6155707957551244e-10,5.330484785030312e-08,-4.989105567388118e-08,0.9999999999999973,0.0;0.0;0.0;0.0;0.0;0.0;0.0;0.0;0.0,7.621289842063561e-05;0.0;0.0;0.0;7.621289842063561e-05;0.0;0.0;0.0;7.621289842063561e-05,3.999999975690116e-08;0.0;0.0;0.0;3.999999975690116e-08;0.0;0.0;0.0;3.999999975690116e-08
140,300000000,140.3,imu_link,-0.0064588055476527,-4.75508666292076e-05,-0.0026485598078051353,0.0002458280573555835,-1.5482912804631372e-05,9.800111826818254,-4.6155707937035433e-10,5.3304847850404794e-08,-4.989105567388759e-08,0.9999999999999973,0.0;0.0;0.0;0.0;0.0;0.0;0.0;0.0;0.0,7.621289842063561e-05;0.0;0.0;0.0;7.621289842063561e-05;0.0;0.0;0.0;7.621289842063561e-05,3.999999975690116e-08;0.0;0.0;0.0;3.999999975690116e-08;0.0;0.0;0.0;3.999999975690116e-08
140,320000000,140.32,imu_link,-0.010919785784031438,0.022729390836693703,0.01008786644596733,0.0002660978418606478,-0.00019548114859853816,9.799855258235135,-4.615570796444125e-10,5.3304847850732616e-08,-4.989105567389387e-08,0.9999999999999973,0.0;0.0;0.0;0.0;0.0;0.0;0.0;0.0;0.0,7.621289842063561e-05;0.0;0.0;0.0;7.621289842063561e-05;0.0;0.0;0.0;7.621289842063561e-05,3.999999975690116e-08;0.0;0.0;0.0;3.999999975690116e-08;0.0;0.0;0.0;3.999999975690116e-08
140,340000000,140.34,imu_link,-0.010980640826853452,-0.009540585931443435,-0.004439139771528657,0.00035120321491854045,-0.00026494012294331056,9.799938013935789,-4.6155707942034246e-10,5.330484785071722e-08,-4.9891055673898606e-08,0.9999999999999973,0.0;0.0;0.0;0.0;0.0;0.0;0.0;0.0;0.0,7.621289842063561e-05;0.0;0.0;0.0;7.621289842063561e-05;0.0;0.0;0.0;7.621289842063561e-05,3.999999975690116e-08;0.0;0.0;0.0;3.999999975690116e-08;0.0;0.0;0.0;3.999999975690116e-08
140,360000000,140.36,imu_link,-0.010711465713087773,-0.001898522443361372,0.002110227037149231,-0.00013674822187989793,-9.00692594915015e-05,9.799967864396162,-4.6155707959132436e-10,5.3304847850400844e-08,-4.989105567390374e-08,0.9999999999999973,0.0;0.0;0.0;0.0;0.0;0.0;0.0;0.0;0.0,7.621289842063561e-05;0.0;0.0;0.0;7.621289842063561e-05;0.0;0.0;0.0;7.621289842063561e-05,3.999999975690116e-08;0.0;0.0;0.0;3.999999975690116e-08;0.0;0.0;0.0;3.999999975690116e-08
140,380000000,140.38,imu_link,-0.005112022659665751,-0.009065993975122104,0.0018883325046012388,0.000489286872977037,-0.0001530815130936328,9.800244763782306,-4.6155707939037164e-10,5.3304847850517264e-08,-4.989105567390933e-08,0.9999999999999973,0.0;0.0;0.0;0.0;0.0;0.0;0.0;0.0;0.0,7.621289842063561e-05;0.0;0.0;0.0;7.621289842063561e-05;0.0;0.0;0.0;7.621289842063561e-05,3.999999975690116e-08;0.0;0.0;0.0;3.999999975690116e-08;0.0;0.0;0.0;3.999999975690116e-08
140,400000000,140.4,imu_link,0.008417531644777888,-0.008082909267430365,0.012602868610615754,0.00015903474767906136,-2.959119783413553e-05,9.800088885086126,-4.6155707955469293e-10,5.330484785067187e-08,-4.989105567391475e-08,0.9999999999999973,0.0;0.0;0.0;0.0;0.0;0.0;0.0;0.0;0.0,7.621289842063561e-05;0.0;0.0;0.0;7.621289842063561e-05;0.0;0.0;0.0;7.621289842063561e-05,3.999999975690116e-08;0.0;0.0;0.0;3.999999975690116e-08;0.0;0.0;0.0;3.999999975690116e-08
140,420000000,140.42,imu_link,-0.015355592160611362,-0.01872227719758685,0.004222034721708495,4.361880168444591e-05,0.00010162039809591635,9.800190795864737,-4.615570797052735e-10,5.330484785081977e-08,-4.98910556739207e-08,0.9999999999999973,0.0;0.0;0.0;0.0;0.0;0.0;0.0;0.0;0.0,7.621289842063561e-05;0.0;0.0;0.0;7.621289842063561e-05;0.0;0.0;0.0;7.621289842063561e-05,3.999999975690116e-08;0.0;0.0;0.0;3.999999975690116e-08;0.0;0.0;0.0;3.999999975690116e-08
140,440000000,140.44,imu_link,0.008528198920376356,0.014406140691806379,0.008274629521206639,-0.00013679196668101503,-0.00014435170298862272,9.800341535840612,-4.615570796171069e-10,5.3304847850453115e-08,-4.989105567392384e-08,0.9999999999999973,0.0;0.0;0.0;0.0;0.0;0.0;0.0;0.0;0.0,7.621289842063561e-05;0.0;0.0;0.0;7.621289842063561e-05;0.0;0.0;0.0;7.621289842063561e-05,3.999999975690116e-08;0.0;0.0;0.0;3.999999975690116e-08;0.0;0.0;0.0;3.999999975690116e-08
140,460000000,140.46,imu_link,-0.003009687275755482,-0.004312703265155363,0.01341261165716614,0.0002480188677713666,-9.647299208704059e-05,9.800318414148238,-4.6155707941936484e-10,5.33048478505585e-08,-4.989105567392984e-08,0.9999999999999973,0.0;0.0;0.0;0.0;0.0;0.0;0.0;0.0;0.0,7.621289842063561e-05;0.0;0.0;0.0;7.621289842063561e-05;0.0;0.0;0.0;7.621289842063561e-05,3.999999975690116e-08;0.0;0.0;0.0;3.999999975690116e-08;0.0;0.0;0.0;3.999999975690116e-08
140,480000000,140.48,imu_link,-0.006082322335873563,-0.0027537998800002397,0.0029971197271371408,0.0002094553970691343,-0.00040219338274303135,9.800287604932812,-4.615570795698637e-10,5.330484785071941e-08,-4.989105567393372e-08,0.9999999999999973,0.0;0.0;0.0;0.0;0.0;0.0;0.0;0.0;0.0,7.621289842063561e-05;0.0;0.0;0.0;7.621289842063561e-05;0.0;0.0;0.0;7.621289842063561e-05,3.999999975690116e-08;0.0;0.0;0.0;3.999999975690116e-08;0.0;0.0;0.0;3.999999975690116e-08
140,500000000,140.5,imu_link,0.0013554295600971711,0.006833444122426827,0.010757581235923812,0.0001122147548297644,0.0003567992076015051,9.800043952873901,-4.615570793657599e-10,5.3304847850828476e-08,-4.9891055673938695e-08,0.9999999999999973,0.0;0.0;0.0;0.0;0.0;0.0;0.0;0.0;0.0,7.621289842063561e-05;0.0;0.0;0.0;7.621289842063561e-05;0.0;0.0;0.0;7.621289842063561e-05,3.999999975690116e-08;0.0;0.0;0.0;3.999999975690116e-08;0.0;0.0;0.0;3.999999975690116e-08
140,520000000,140.52,imu_link,-0.005992497300480742,-0.01117074562645812,0.01753882672356294,-9.392597482299035e-05,-0.00020271720710275039,9.799915688066076,-4.6155707941328506e-10,5.3304847850526846e-08,-4.989105567394194e-08,0.9999999999999973,0.0;0.0;0.0;0.0;0.0;0.0;0.0;0.0;0.0,7.621289842063561e-05;0.0;0.0;0.0;7.621289842063561e-05;0.0;0.0;0.0;7.621289842063561e-05,3.999999975690116e-08;0.0;0.0;0.0;3.999999975690116e-08;0.0;0.0;0.0;3.999999975690116e-08
140,540000000,140.54,imu_link,-0.008864545346917323,0.00977549936616045,0.015522287530019994,0.0004162869257482558,-9.531119696585977e-06,9.799999484439695,-4.6155707958731166e-10,5.330484785055958e-08,-4.989105567394574e-08,0.9999999999999973,0.0;0.0;0.0;0.0;0.0;0.0;0.0;0.0;0.0,7.621289842063561e-05;0.0;0.0;0.0;7.621289842063561e-05;0.0;0.0;0.0;7.621289842063561e-05,3.999999975690116e-08;0.0;0.0;0.0;3.999999975690116e-08;0.0;0.0;0.0;3.999999975690116e-08
140,560000000,140.56,imu_link,-0.008190436151710317,-0.010140106578058897,0.012128901101046412,0.00023396234957757738,1.6208178792201603e-05,9.80014260126477,-4.6155707948598503e-10,5.3304847850725714e-08,-4.9891055673950236e-08,0.9999999999999973,0.0;0.0;0.0;0.0;0.0;0.0;0.0;0.0;0.0,7.621289842063561e-05;0.0;0.0;0.0;7.621289842063561e-05;0.0;0.0;0.0;7.621289842063561e-05,3.999999975690116e-08;0.0;0.0;0.0;3.999999975690116e-08;0.0;0.0;0.0;3.999999975690116e-08
140,580000000,140.58,imu_link,-0.00415945827226545,0.007083658902834573,0.01301007615071308,0.0005606652665522468,-8.911866419831924e-05,9.800080988822513,-4.615570795369992e-10,5.3304847850248424e-08,-4.9891055673956694e-08,0.9999999999999973,0.0;0.0;0.0;0.0;0.0;0.0;0.0;0.0;0.0,7.621289842063561e-05;0.0;0.0;0.0;7.621289842063561e-05;0.0;0.0;0.0;7.621289842063561e-05,3.999999975690116e-08;0.0;0.0;0.0;3.999999975690116e-08;0.0;0.0;0.0;3.999999975690116e-08
140,600000000,140.6,imu_link,-0.009178562652473011,0.013130294529972296,0.010358950439663778,0.0003200554673921281,-5.5190693070651175e-05,9.800203998460448,-4.615570794170033e-10,5.3304847850535284e-08,-4.989105567396111e-08,0.9999999999999973,0.0;0.0;0.0;0.0;0.0;0.0;0.0;0.0;0.0,7.621289842063561e-05;0.0;0.0;0.0;7.621289842063561e-05;0.0;0.0;0.0;7.621289842063561e-05,3.999999975690116e-08;0.0;0.0;0.0;3.999999975690116e-08;0.0;0.0;0.0;3.999999975690116e-08
140,620000000,140.62,imu_link,0.00020586768949345488,0.007290844480650162,0.007017348435668464,-0.00017348741174546476,-8.880087145633513e-05,9.800253126080873,-4.615570795834833e-10,5.3304847850681887e-08,-4.9891055673964893e-08,0.9999999999999973,0.0;0.0;0.0;0.0;0.0;0.0;0.0;0.0;0.0,7.621289842063561e-05;0.0;0.0;0.0;7.621289842063561e-05;0.0;0.0;0.0;7.621289842063561e-05,3.999999975690116e-08;0.0;0.0;0.0;3.999999975690116e-08;0.0;0.0;0.0;3.999999975690116e-08
140,640000000,140.64,imu_link,-0.013241727493503427,0.0018543053996199295,-0.0036389682391403735,-1.8542675454032888e-05,-0.00019611493852690772,9.799956697246651,-4.61557079613001e-10,5.330484785035986e-08,-4.9891055673970717e-08,0.9999999999999973,0.0;0.0;0.0;0.0;0.0;0.0;0.0;0.0;0.0,7.621289842063561e-05;0.0;0.0;0.0;7.621289842063561e-05;0.0;0.0;0.0;7.621289842063561e-05,3.999999975690116e-08;0.0;0.0;0.0;3.999999975690116e-08;0.0;0.0;0.0;3.999999975690116e-08
140,660000000,140.66,imu_link,0.005978510581031068,0.009290264003000497,0.017122610744761887,0.00014268881894174745,0.0002033294301273954,9.80020268676408,-4.615570794014048e-10,5.330484785047347e-08,-4.989105567397543e-08,0.9999999999999973,0.0;0.0;0.0;0.0;0.0;0.0;0.0;0.0;0.0,7.621289842063561e-05;0.0;0.0;0.0;7.621289842063561e-05;0.0;0.0;0.0;7.621289842063561e-05,3.999999975690116e-08;0.0;0.0;0.0;3.999999975690116e-08;0.0;0.0;0.0;3.999999975690116e-08
140,680000000,140.68,imu_link,-0.02058053792406864,0.012539944510182142,0.010458856695899155,0.00012486646196861108,-0.00028538116155856776,9.80003446377937,-4.6155707945001715e-10,5.330484785062851e-08,-4.98910556739798e-08,0.9999999999999973,0.0;0.0;0.0;0.0;0.0;0.0;0.0;0.0;0.0,7.621289842063561e-05;0.0;0.0;0.0;7.621289842063561e-05;0.0;0.0;0.0;7.621289842063561e-05,3.999999975690116e-08;0.0;0.0;0.0;3.999999975690116e-08;0.0;0.0;0.0;3.999999975690116e-08
140,700000000,140.7,imu_link,0.0030938726219794477,0.0035783879265967886,0.017118944683936314,0.000395239163002549,0.00011140953724613181,9.799897953026873,-4.615570794939913e-10,5.3304847850781175e-08,-4.989105567398662e-08,0.9999999999999973,0.0;0.0;0.0;0.0;0.0;0.0;0.0;0.0;0.0,7.621289842063561e-05;0.0;0.0;0.0;7.621289842063561e-05;0.0;0.0;0.0;7.621289842063561e-05,3.999999975690116e-08;0.0;0.0;0.0;3.999999975690116e-08;0.0;0.0;0.0;3.999999975690116e-08
140,720000000,140.72,imu_link,0.0019558291167707086,-0.002325761536100435,0.018767109433840343,0.00026044386106112156,-4.9071696795657806e-05,9.800259973829487,-4.6155707956157564e-10,5.330484785027961e-08,-4.9891055673994017e-08,0.9999999999999973,0.0;0.0;0.0;0.0;0.0;0.0;0.0;0.0;0.0,7.621289842063561e-05;0.0;0.0;0.0;7.621289842063561e-05;0.0;0.0;0.0;7.621289842063561e-05,3.999999975690116e-08;0.0;0.0;0.0;3.999999975690116e-08;0.0;0.0;0.0;3.999999975690116e-08
140,740000000,140.74,imu_link,0.0011190566739288966,0.010116140402368544,0.021335060133996487,0.0002563828890276904,8.645367292102502e-05,9.800331331670915,-4.615570796094398e-10,5.3304847850430106e-08,-4.9891055674000786e-08,0.9999999999999973,0.0;0.0;0.0;0.0;0.0;0.0;0.0;0.0;0.0,7.621289842063561e-05;0.0;0.0;0.0;7.621289842063561e-05;0.0;0.0;0.0;7.621289842063561e-05,3.999999975690116e-08;0.0;0.0;0.0;3.999999975690116e-08;0.0;0.0;0.0;3.999999975690116e-08
140,760000000,140.76,imu_link,0.0010442461125134465,-0.01103341006472044,-0.006966926498654427,7.16593040449418e-05,1.292658334280725e-05,9.800212769719064,-4.6155707948994314e-10,5.330484785058646e-08,-4.989105567400865e-08,0.9999999999999973,0.0;0.0;0.0;0.0;0.0;0.0;0.0;0.0;0.0,7.621289842063561e-05;0.0;0.0;0.0;7.621289842063561e-05;0.0;0.0;0.0;7.621289842063561e-05,3.999999975690116e-08;0.0;0.0;0.0;3.999999975690116e-08;0.0;0.0;0.0;3.999999975690116e-08
140,780000000,140.78,imu_link,-0.002717943280819452,0.0006546896456176717,0.007552960510647447,5.268472694499957e-05,0.00028338162318850365,9.8000469725436,-4.615570795462119e-10,5.3304847850681006e-08,-4.989105567401459e-08,0.9999999999999973,0.0;0.0;0.0;0.0;0.0;0.0;0.0;0.0;0.0,7.621289842063561e-05;0.0;0.0;0.0;7.621289842063561e-05;0.0;0.0;0.0;7.621289842063561e-05,3.999999975690116e-08;0.0;0.0;0.0;3.999999975690116e-08;0.0;0.0;0.0;3.999999975690116e-08
140,800000000,140.8,imu_link,-0.009416436894876654,-0.01343547952379684,0.01348952066254087,-0.00014450557077979738,-0.00033488793966769854,9.79988874714823,-4.6155707957256344e-10,5.330484785036593e-08,-4.9891055674021353e-08,0.9999999999999973,0.0;0.0;0.0;0.0;0.0;0.0;0.0;0.0;0.0,7.621289842063561e-05;0.0;0.0;0.0;7.621289842063561e-05;0.0;0.0;0.0;7.621289842063561e-05,3.999999975690116e-08;0.0;0.0;0.0;3.999999975690116e-08;0.0;0.0;0.0;3.999999975690116e-08
140,820000000,140.82,imu_link,0.006495474257842455,0.01297600956807962,0.020186196248615337,0.00025597248164758275,-0.0004442166408218589,9.799943028637454,-4.6155707959967987e-10,5.330484785051338e-08,-4.989105567402669e-08,0.9999999999999973,0.0;0.0;0.0;0.0;0.0;0.0;0.0;0.0;0.0,7.621289842063561e-05;0.0;0.0;0.0;7.621289842063561e-05;0.0;0.0;0.0;7.621289842063561e-05,3.999999975690116e-08;0.0;0.0;0.0;3.999999975690116e-08;0.0;0.0;0.0;3.999999975690116e-08
140,840000000,140.84,imu_link,-0.00042335687540594625,-0.007294127124331955,0.015222760258824,1.0042677666195873e-05,-0.0004503153758837402,9.799977419454928,-4.615570793894937e-10,5.330484785061594e-08,-4.989105567403124e-08,0.9999999999999973,0.0;0.0;0.0;0.0;0.0;0.0;0.0;0.0;0.0,7.621289842063561e-05;0.0;0.0;0.0;7.621289842063561e-05;0.0;0.0;0.0;7.621289842063561e-05,3.999999975690116e-08;0.0;0.0;0.0;3.999999975690116e-08;0.0;0.0;0.0;3.999999975690116e-08
140,860000000,140.86,imu_link,-0.002682037595641237,0.009873270262888104,0.017368905508678548,0.00018299909433634157,-0.0004804974827803964,9.799929534775211,-4.615570794342026e-10,5.3304847850774656e-08,-4.989105567403789e-08,0.9999999999999973,0.0;0.0;0.0;0.0;0.0;0.0;0.0;0.0;0.0,7.621289842063561e-05;0.0;0.0;0.0;7.621289842063561e-05;0.0;0.0;0.0;7.621289842063561e-05,3.999999975690116e-08;0.0;0.0;0.0;3.999999975690116e-08;0.0;0.0;0.0;3.999999975690116e-08
140,880000000,140.88,imu_link,-0.003256179622341242,0.003356531970079171,0.01027076403074222,-4.252703836767866e-06,-5.679192490861631e-05,9.799815677224062,-4.615570796123876e-10,5.3304847850342054e-08,-4.989105567404326e-08,0.9999999999999973,0.0;0.0;0.0;0.0;0.0;0.0;0.0;0.0;0.0,7.621289842063561e-05;0.0;0.0;0.0;7.621289842063561e-05;0.0;0.0;0.0;7.621289842063561e-05,3.999999975690116e-08;0.0;0.0;0.0;3.999999975690116e-08;0.0;0.0;0.0;3.999999975690116e-08
140,900000000,140.9,imu_link,-0.0023206346501374636,0.005116932910062204,0.01264433887667145,-0.00017999142298182145,0.0002124275110264583,9.800153330192568,-4.6155707952860014e-10,5.3304847850441375e-08,-4.989105567404924e-08,0.9999999999999973,0.0;0.0;0.0;0.0;0.0;0.0;0.0;0.0;0.0,7.621289842063561e-05;0.0;0.0;0.0;7.621289842063561e-05;0.0;0.0;0.0;7.621289842063561e-05,3.999999975690116e-08;0.0;0.0;0.0;3.999999975690116e-08;0.0;0.0;0.0;3.999999975690116e-08
140,920000000,140.92,imu_link,0.0032673238225510463,0.0006543392433078929,0.009626193058242449,0.00010892175092465194,-0.0003326001661258949,9.800330805949317,-4.615570794145694e-10,5.330484785062266e-08,-4.9891055674053627e-08,0.9999999999999973,0.0;0.0;0.0;0.0;0.0;0.0;0.0;0.0;0.0,7.621289842063561e-05;0.0;0.0;0.0;7.621289842063561e-05;0.0;0.0;0.0;7.621289842063561e-05,3.999999975690116e-08;0.0;0.0;0.0;3.999999975690116e-08;0.0;0.0;0.0;3.999999975690116e-08
140,940000000,140.94,imu_link,0.004147576922244707,-0.00603977446098015,0.014031506830636309,2.4336902444254056e-05,-0.00041197448781104786,9.799955236001013,-4.6155707957764957e-10,5.330484785030913e-08,-4.989105567405964e-08,0.9999999999999973,0.0;0.0;0.0;0.0;0.0;0.0;0.0;0.0;0.0,7.621289842063561e-05;0.0;0.0;0.0;7.621289842063561e-05;0.0;0.0;0.0;7.621289842063561e-05,3.999999975690116e-08;0.0;0.0;0.0;3.999999975690116e-08;0.0;0.0;0.0;3.999999975690116e-08
140,960000000,140.96,imu_link,0.022112132579278135,0.011872767286882717,0.0017486705217079814,0.00022645667042511277,0.0002693461853006009,9.799950477375244,-4.615570793778351e-10,5.330484785041801e-08,-4.989105567406743e-08,0.9999999999999973,0.0;0.0;0.0;0.0;0.0;0.0;0.0;0.0;0.0,7.621289842063561e-05;0.0;0.0;0.0;7.621289842063561e-05;0.0;0.0;0.0;7.621289842063561e-05,3.999999975690116e-08;0.0;0.0;0.0;3.999999975690116e-08;0.0;0.0;0.0;3.999999975690116e-08
140,980000000,140.98,imu_link,-0.0011649411701809408,-0.01406172093767768,0.013583745907199692,0.00015000326268863618,-0.00027207052039020203,9.800038450040248,-4.615570795539824e-10,5.330484785056936e-08,-4.9891055674073565e-08,0.9999999999999973,0.0;0.0;0.0;0.0;0.0;0.0;0.0;0.0;0.0,7.621289842063561e-05;0.0;0.0;0.0;7.621289842063561e-05;0.0;0.0;0.0;7.621289842063561e-05,3.999999975690116e-08;0.0;0.0;0.0;3.999999975690116e-08;0.0;0.0;0.0;3.999999975690116e-08
141,0,141.0,imu_link,-0.004957452446347927,0.0039055832767824804,-0.0026180586768771684,-0.00018852800579361709,-0.00023624423015238715,9.799843782048942,-4.61557079584137e-10,5.3304847850735647e-08,-4.989105567407904e-08,0.9999999999999973,0.0;0.0;0.0;0.0;0.0;0.0;0.0;0.0;0.0,7.621289842063561e-05;0.0;0.0;0.0;7.621289842063561e-05;0.0;0.0;0.0;7.621289842063561e-05,3.999999975690116e-08;0.0;0.0;0.0;3.999999975690116e-08;0.0;0.0;0.0;3.999999975690116e-08
141,20000000,141.02,imu_link,0.007905613037477846,0.00037559080730874213,0.01641060418627127,-0.0001999984141097019,0.00024385397629790999,9.799872803910128,-4.615570793700265e-10,5.330484785084147e-08,-4.989105567408492e-08,0.9999999999999973,0.0;0.0;0.0;0.0;0.0;0.0;0.0;0.0;0.0,7.621289842063561e-05;0.0;0.0;0.0;7.621289842063561e-05;0.0;0.0;0.0;7.621289842063561e-05,3.999999975690116e-08;0.0;0.0;0.0;3.999999975690116e-08;0.0;0.0;0.0;3.999999975690116e-08
141,40000000,141.04,imu_link,0.011912422724139808,-0.0008577041463025938,0.006780130015296952,0.0003971207154709753,-0.0003349828098216798,9.800043456936702,-4.6155707942087527e-10,5.3304847850524266e-08,-4.9891055674090916e-08,0.9999999999999973,0.0;0.0;0.0;0.0;0.0;0.0;0.0;0.0;0.0,7.621289842063561e-05;0.0;0.0;0.0;7.621289842063561e-05;0.0;0.0;0.0;7.621289842063561e-05,3.999999975690116e-08;0.0;0.0;0.0;3.999999975690116e-08;0.0;0.0;0.0;3.999999975690116e-08
141,60000000,141.06,imu_link,0.00022888522698327637,-0.009481012417055536,0.00937748059363788,0.00010118911003362582,4.354028332926301e-05,9.799889035312743,-4.61557079576781e-10,5.330484785067084e-08,-4.989105567409697e-08,0.9999999999999973,0.0;0.0;0.0;0.0;0.0;0.0;0.0;0.0;0.0,7.621289842063561e-05;0.0;0.0;0.0;7.621289842063561e-05;0.0;0.0;0.0;7.621289842063561e-05,3.999999975690116e-08;0.0;0.0;0.0;3.999999975690116e-08;0.0;0.0;0.0;3.999999975690116e-08
141,80000000,141.08,imu_link,-0.0010435021649310042,0.001278613111609335,0.017755314687108663,0.0002509126883790952,0.0001481653970203289,9.7999522558308,-4.6155707971176015e-10,5.330484785089461e-08,-4.989105567410299e-08,0.9999999999999973,0.0;0.0;0.0;0.0;0.0;0.0;0.0;0.0;0.0,7.621289842063561e-05;0.0;0.0;0.0;7.621289842063561e-05;0.0;0.0;0.0;7.621289842063561e-05,3.999999975690116e-08;0.0;0.0;0.0;3.999999975690116e-08;0.0;0.0;0.0;3.999999975690116e-08
141,100000000,141.1,imu_link,-0.005693834458591902,-0.005715884715618578,0.0007221641267656266,0.00019135497060488176,-0.0001392589872192453,9.799976676259213,-4.6155707954785064e-10,5.3304847850359e-08,-4.989105567410921e-08,0.9999999999999973,0.0;0.0;0.0;0.0;0.0;0.0;0.0;0.0;0.0,7.621289842063561e-05;0.0;0.0;0.0;7.621289842063561e-05;0.0;0.0;0.0;7.621289842063561e-05,3.999999975690116e-08;0.0;0.0;0.0;3.999999975690116e-08;0.0;0.0;0.0;3.999999975690116e-08
141,120000000,141.12,imu_link,-0.00018096479311944489,-0.008108087078847494,0.012804798361607288,-0.00018320310155615064,0.00015729571086637946,9.800118909281757,-4.6155707948104444e-10,5.330484785046135e-08,-4.989105567411574e-08,0.9999999999999973,0.0;0.0;0.0;0.0;0.0;0.0;0.0;0.0;0.0,7.621289842063561e-05;0.0;0.0;0.0;7.621289842063561e-05;0.0;0.0;0.0;7.621289842063561e-05,3.999999975690116e-08;0.0;0.0;0.0;3.999999975690116e-08;0.0;0.0;0.0;3.999999975690116e-08
141,140000000,141.14,imu_link,0.011650718236870349,-0.005864835904627892,0.0036548336172236044,-1.5471790810397907e-05,-8.002101746037226e-05,9.799654614003316,-4.615570794812284e-10,5.3304847850692064e-08,-4.989105567412093e-08,0.9999999999999973,0.0;0.0;0.0;0.0;0.0;0.0;0.0;0.0;0.0,7.621289842063561e-05;0.0;0.0;0.0;7.621289842063561e-05;0.0;0.0;0.0;7.621289842063561e-05,3.999999975690116e-08;0.0;0.0;0.0;3.999999975690116e-08;0.0;0.0;0.0;3.999999975690116e-08
141,160000000,141.16,imu_link,-0.0012498097577503932,0.003996877129996812,0.023326711225789755,0.00032300522187957023,-7.41000835376878e-05,9.800088651651775,-4.615570794038252e-10,5.330484785032798e-08,-4.989105567412754e-08,0.9999999999999973,0.0;0.0;0.0;0.0;0.0;0.0;0.0;0.0;0.0,7.621289842063561e-05;0.0;0.0;0.0;7.621289842063561e-05;0.0;0.0;0.0;7.621289842063561e-05,3.999999975690116e-08;0.0;0.0;0.0;3.999999975690116e-08;0.0;0.0;0.0;3.999999975690116e-08
141,180000000,141.18,imu_link,-0.00911760263597187,-0.0009124489466984364,-0.017779583810858264,0.0002638119512094754,-0.00025791393649437957,9.800023482554453,-4.6155707945339887e-10,5.330484785048389e-08,-4.989105567413523e-08,0.9999999999999973,0.0;0.0;0.0;0.0;0.0;0.0;0.0;0.0;0.0,7.621289842063561e-05;0.0;0.0;0.0;7.621289842063561e-05;0.0;0.0;0.0;7.621289842063561e-05,3.999999975690116e-08;0.0;0.0;0.0;3.999999975690116e-08;0.0;0.0;0.0;3.999999975690116e-08
141,200000000,141.2,imu_link,0.03429314813771506,0.010077616074040641,-0.002155405137547514,-0.00015239506533540353,-0.00024008562576086347,9.800259862549732,-4.615570793883889e-10,5.330484785059231e-08,-4.989105567414327e-08,0.9999999999999973,0.0;0.0;0.0;0.0;0.0;0.0;0.0;0.0;0.0,7.621289842063561e-05;0.0;0.0;0.0;7.621289842063561e-05;0.0;0.0;0.0;7.621289842063561e-05,3.999999975690116e-08;0.0;0.0;0.0;3.999999975690116e-08;0.0;0.0;0.0;3.999999975690116e-08
141,220000000,141.22,imu_link,-0.0005430909408562614,0.00898428068123513,0.011974509820753678,-9.547728464050795e-05,0.00031894083761540247,9.800105142006988,-4.6155707944221177e-10,5.3304847850756035e-08,-4.9891055674150685e-08,0.9999999999999973,0.0;0.0;0.0;0.0;0.0;0.0;0.0;0.0;0.0,7.621289842063561e-05;0.0;0.0;0.0;7.621289842063561e-05;0.0;0.0;0.0;7.621289842063561e-05,3.999999975690116e-08;0.0;0.0;0.0;3.999999975690116e-08;0.0;0.0;0.0;3.999999975690116e-08
141,240000000,141.24,imu_link,-0.012165364110155242,0.0010008811488919182,0.022476497970954298,0.00024601213876042024,-0.0005437728778030046,9.800054427471212,-4.615570795281554e-10,5.330484785025492e-08,-4.9891055674158665e-08,0.9999999999999973,0.0;0.0;0.0;0.0;0.0;0.0;0.0;0.0;0.0,7.621289842063561e-05;0.0;0.0;0.0;7.621289842063561e-05;0.0;0.0;0.0;7.621289842063561e-05,3.999999975690116e-08;0.0;0.0;0.0;3.999999975690116e-08;0.0;0.0;0.0;3.999999975690116e-08
141,260000000,141.26,imu_link,-0.003958400014606402,0.005425887598945397,-0.0077032433586115365,0.00031149175005281153,-0.00027430375596156667,9.800115645004288,-4.615570794366443e-10,5.330484785053897e-08,-4.989105567416628e-08,0.9999999999999973,0.0;0.0;0.0;0.0;0.0;0.0;0.0;0.0;0.0,7.621289842063561e-05;0.0;0.0;0.0;7.621289842063561e-05;0.0;0.0;0.0;7.621289842063561e-05,3.999999975690116e-08;0.0;0.0;0.0;3.999999975690116e-08;0.0;0.0;0.0;3.999999975690116e-08
141,280000000,141.28,imu_link,0.003795914823488178,-0.0015896238904726076,0.023393771165630507,0.00012214962177977749,-0.00015960947424929523,9.800210212042803,-4.6155707948767475e-10,5.330484785069489e-08,-4.989105567417413e-08,0.9999999999999973,0.0;0.0;0.0;0.0;0.0;0.0;0.0;0.0;0.0,7.621289842063561e-05;0.0;0.0;0.0;7.621289842063561e-05;0.0;0.0;0.0;7.621289842063561e-05,3.999999975690116e-08;0.0;0.0;0.0;3.999999975690116e-08;0.0;0.0;0.0;3.999999975690116e-08
141,300000000,141.3,imu_link,0.007733770613525412,-0.008372292725845725,0.0023103678614571233,0.0006903788574141916,-0.0001706550601413728,9.800018340450961,-4.615570795426172e-10,5.3304847850730465e-08,-4.9891055674181886e-08,0.9999999999999973,0.0;0.0;0.0;0.0;0.0;0.0;0.0;0.0;0.0,7.621289842063561e-05;0.0;0.0;0.0;7.621289842063561e-05;0.0;0.0;0.0;7.621289842063561e-05,3.999999975690116e-08;0.0;0.0;0.0;3.999999975690116e-08;0.0;0.0;0.0;3.999999975690116e-08
141,320000000,141.32,imu_link,-0.0012024856160012646,-0.00633225953317397,-0.0041683559526761605,7.870814187255984e-05,-2.8390073559824618e-05,9.800301888982858,-4.615570793444451e-10,5.33048478508363e-08,-4.989105567418905e-08,0.9999999999999973,0.0;0.0;0.0;0.0;0.0;0.0;0.0;0.0;0.0,7.621289842063561e-05;0.0;0.0;0.0;7.621289842063561e-05;0.0;0.0;0.0;7.621289842063561e-05,3.999999975690116e-08;0.0;0.0;0.0;3.999999975690116e-08;0.0;0.0;0.0;3.999999975690116e-08
141,340000000,141.34,imu_link,0.0005010015888261976,-0.003362957944430714,0.005970702822832241,0.00011919465837845246,-0.0001998852258474462,9.800121024477011,-4.615570794217733e-10,5.3304847850352556e-08,-4.9891055674196385e-08,0.9999999999999973,0.0;0.0;0.0;0.0;0.0;0.0;0.0;0.0;0.0,7.621289842063561e-05;0.0;0.0;0.0;7.621289842063561e-05;0.0;0.0;0.0;7.621289842063561e-05,3.999999975690116e-08;0.0;0.0;0.0;3.999999975690116e-08;0.0;0.0;0.0;3.999999975690116e-08
141,360000000,141.36,imu_link,-0.008653321071863495,-0.0018163711503415589,0.00035287605171663815,0.00019155671605938652,-0.00028971755863310895,9.800466668031824,-4.6155707942627965e-10,5.330484785069277e-08,-4.989105567420226e-08,0.9999999999999973,0.0;0.0;0.0;0.0;0.0;0.0;0.0;0.0;0.0,7.621289842063561e-05;0.0;0.0;0.0;7.621289842063561e-05;0.0;0.0;0.0;7.621289842063561e-05,3.999999975690116e-08;0.0;0.0;0.0;3.999999975690116e-08;0.0;0.0;0.0;3.999999975690116e-08
141,380000000,141.38,imu_link,-0.007033754195111056,-0.006554325571996427,0.013078701076927877,5.2019186092757684e-05,-0.0003374576317938004,9.80021445389558,-4.6155707946709264e-10,5.3304847850854304e-08,-4.989105567421017e-08,0.9999999999999973,0.0;0.0;0.0;0.0;0.0;0.0;0.0;0.0;0.0,7.621289842063561e-05;0.0;0.0;0.0;7.621289842063561e-05;0.0;0.0;0.0;7.621289842063561e-05,3.999999975690116e-08;0.0;0.0;0.0;3.999999975690116e-08;0.0;0.0;0.0;3.999999975690116e-08
141,400000000,141.4,imu_link,-0.007727445451392451,-0.005626378362974574,0.025505158576837696,-0.00011215458320400046,-0.0005856269602197438,9.800227395785509,-4.6155707942718345e-10,5.3304847850303104e-08,-4.9891055674216144e-08,0.9999999999999973,0.0;0.0;0.0;0.0;0.0;0.0;0.0;0.0;0.0,7.621289842063561e-05;0.0;0.0;0.0;7.621289842063561e-05;0.0;0.0;0.0;7.621289842063561e-05,3.999999975690116e-08;0.0;0.0;0.0;3.999999975690116e-08;0.0;0.0;0.0;3.999999975690116e-08
141,420000000,141.42,imu_link,0.009513040307696324,-0.01152478619718937,0.01482276961453035,0.00043287247146490916,-0.00033123782505506936,9.80008151999737,-4.6155707947466093e-10,5.330484785046007e-08,-4.989105567422256e-08,0.9999999999999973,0.0;0.0;0.0;0.0;0.0;0.0;0.0;0.0;0.0,7.621289842063561e-05;0.0;0.0;0.0;7.621289842063561e-05;0.0;0.0;0.0;7.621289842063561e-05,3.999999975690116e-08;0.0;0.0;0.0;3.999999975690116e-08;0.0;0.0;0.0;3.999999975690116e-08
141,440000000,141.44,imu_link,-0.00018982586308501222,0.0013029170641724412,0.006308383185251121,0.0003014774604209409,-0.0004505942692972739,9.800175394689566,-4.6155707952465567e-10,5.3304847850625076e-08,-4.9891055674229406e-08,0.9999999999999973,0.0;0.0;0.0;0.0;0.0;0.0;0.0;0.0;0.0,7.621289842063561e-05;0.0;0.0;0.0;7.621289842063561e-05;0.0;0.0;0.0;7.621289842063561e-05,3.999999975690116e-08;0.0;0.0;0.0;3.999999975690116e-08;0.0;0.0;0.0;3.999999975690116e-08
141,460000000,141.46,imu_link,-0.0034649120090961476,0.006626947517032851,0.00874548280440904,0.00044384899034105574,-0.00010319049803423644,9.800455911613671,-4.6155707957028446e-10,5.330484785032129e-08,-4.9891055674236917e-08,0.9999999999999973,0.0;0.0;0.0;0.0;0.0;0.0;0.0;0.0;0.0,7.621289842063561e-05;0.0;0.0;0.0;7.621289842063561e-05;0.0;0.0;0.0;7.621289842063561e-05,3.999999975690116e-08;0.0;0.0;0.0;3.999999975690116e-08;0.0;0.0;0.0;3.999999975690116e-08
141,480000000,141.48,imu_link,-0.005365906866994774,-0.018162453700244996,0.01994794045821422,0.0002876382001096726,7.566077507120382e-05,9.799887871886604,-4.615570793680974e-10,5.330484785042449e-08,-4.9891055674245566e-08,0.9999999999999973,0.0;0.0;0.0;0.0;0.0;0.0;0.0;0.0;0.0,7.621289842063561e-05;0.0;0.0;0.0;7.621289842063561e-05;0.0;0.0;0.0;7.621289842063561e-05,3.999999975690116e-08;0.0;0.0;0.0;3.999999975690116e-08;0.0;0.0;0.0;3.999999975690116e-08
141,500000000,141.5,imu_link,0.02043946327201606,-0.008839460000277584,0.019586332268446707,0.0001136265594879332,1.2407161314959768e-05,9.800110504190162,-4.615570794122963e-10,5.3304847850582565e-08,-4.989105567425187e-08,0.9999999999999973,0.0;0.0;0.0;0.0;0.0;0.0;0.0;0.0;0.0,7.621289842063561e-05;0.0;0.0;0.0;7.621289842063561e-05;0.0;0.0;0.0;7.621289842063561e-05,3.999999975690116e-08;0.0;0.0;0.0;3.999999975690116e-08;0.0;0.0;0.0;3.999999975690116e-08
141,520000000,141.52,imu_link,-0.005322519861345945,-0.005362786744646703,0.014399006914988287,0.0004020058888796581,0.0003596575297032848,9.80012240021168,-4.6155707959262087e-10,5.330484785072896e-08,-4.989105567425911e-08,0.9999999999999973,0.0;0.0;0.0;0.0;0.0;0.0;0.0;0.0;0.0,7.621289842063561e-05;0.0;0.0;0.0;7.621289842063561e-05;0.0;0.0;0.0;7.621289842063561e-05,3.999999975690116e-08;0.0;0.0;0.0;3.999999975690116e-08;0.0;0.0;0.0;3.999999975690116e-08
141,540000000,141.54,imu_link,0.006711898257870193,-0.0031947663479771557,0.013669743385326418,0.0003290988715168805,-5.5662673392284334e-05,9.800399263922294,-4.615570794043262e-10,5.3304847850378774e-08,-4.989105567426607e-08,0.9999999999999973,0.0;0.0;0.0;0.0;0.0;0.0;0.0;0.0;0.0,7.621289842063561e-05;0.0;0.0;0.0;7.621289842063561e-05;0.0;0.0;0.0;7.621289842063561e-05,3.999999975690116e-08;0.0;0.0;0.0;3.999999975690116e-08;0.0;0.0;0.0;3.999999975690116e-08
141,560000000,141.56,imu_link,-0.016406757709437732,-0.0006514500583086434,0.015126091549182036,0.00047555243812793174,-0.00025188579794588334,9.799956664106638,-4.6155707959301724e-10,5.330484785052428e-08,-4.9891055674274993e-08,0.9999999999999973,0.0;0.0;0.0;0.0;0.0;0.0;0.0;0.0;0.0,7.621289842063561e-05;0.0;0.0;0.0;7.621289842063561e-05;0.0;0.0;0.0;7.621289842063561e-05,3.999999975690116e-08;0.0;0.0;0.0;3.999999975690116e-08;0.0;0.0;0.0;3.999999975690116e-08
141,580000000,141.58,imu_link,0.012006255344759739,-0.0012738385580601363,-0.011404742287449159,-0.0003257139544090386,-0.00018290164294572668,9.800240319335844,-4.615570795407266e-10,5.3304847850515603e-08,-4.9891055674282173e-08,0.9999999999999973,0.0;0.0;0.0;0.0;0.0;0.0;0.0;0.0;0.0,7.621289842063561e-05;0.0;0.0;0.0;7.621289842063561e-05;0.0;0.0;0.0;7.621289842063561e-05,3.999999975690116e-08;0.0;0.0;0.0;3.999999975690116e-08;0.0;0.0;0.0;3.999999975690116e-08
141,600000000,141.6,imu_link,-0.007956421405870042,0.0008810492518097811,0.005242718401301676,-0.00021678731524857325,-0.0002505980910482771,9.800494342875794,-4.6155707953979985e-10,5.330484785085932e-08,-4.989105567428884e-08,0.9999999999999973,0.0;0.0;0.0;0.0;0.0;0.0;0.0;0.0;0.0,7.621289842063561e-05;0.0;0.0;0.0;7.621289842063561e-05;0.0;0.0;0.0;7.621289842063561e-05,3.999999975690116e-08;0.0;0.0;0.0;3.999999975690116e-08;0.0;0.0;0.0;3.999999975690116e-08
141,620000000,141.62,imu_link,0.01714451787995679,-0.004496595188191609,0.005068908323068942,-2.3909519299594934e-05,-1.948419490822547e-05,9.79981942519252,-4.6155707959939894e-10,5.330484785049046e-08,-4.98910556742947e-08,0.9999999999999973,0.0;0.0;0.0;0.0;0.0;0.0;0.0;0.0;0.0,7.621289842063561e-05;0.0;0.0;0.0;7.621289842063561e-05;0.0;0.0;0.0;7.621289842063561e-05,3.999999975690116e-08;0.0;0.0;0.0;3.999999975690116e-08;0.0;0.0;0.0;3.999999975690116e-08
141,640000000,141.64,imu_link,0.003436295279947799,-0.018295538614017608,-0.0041704897397969055,-9.222557170413659e-05,-9.799186803514458e-05,9.800242815336313,-4.615570795265289e-10,5.330484785047638e-08,-4.9891055674301734e-08,0.9999999999999973,0.0;0.0;0.0;0.0;0.0;0.0;0.0;0.0;0.0,7.621289842063561e-05;0.0;0.0;0.0;7.621289842063561e-05;0.0;0.0;0.0;7.621289842063561e-05,3.999999975690116e-08;0.0;0.0;0.0;3.999999975690116e-08;0.0;0.0;0.0;3.999999975690116e-08
141,660000000,141.66,imu_link,0.010334712942891663,0.002384902173684437,-0.012078646337168708,-0.00014770820581415075,-0.00022595592239995903,9.800097096942729,-4.615570794172635e-10,5.330484785076866e-08,-4.989105567430975e-08,0.9999999999999973,0.0;0.0;0.0;0.0;0.0;0.0;0.0;0.0;0.0,7.621289842063561e-05;0.0;0.0;0.0;7.621289842063561e-05;0.0;0.0;0.0;7.621289842063561e-05,3.999999975690116e-08;0.0;0.0;0.0;3.999999975690116e-08;0.0;0.0;0.0;3.999999975690116e-08
141,680000000,141.68,imu_link,0.011701744192386511,0.008159139272196041,0.004449015994799659,3.3796136936246806e-05,-7.438585914402806e-05,9.800173070087252,-4.615570796032121e-10,5.330484785034279e-08,-4.989105567431611e-08,0.9999999999999973,0.0;0.0;0.0;0.0;0.0;0.0;0.0;0.0;0.0,7.621289842063561e-05;0.0;0.0;0.0;7.621289842063561e-05;0.0;0.0;0.0;7.621289842063561e-05,3.999999975690116e-08;0.0;0.0;0.0;3.999999975690116e-08;0.0;0.0;0.0;3.999999975690116e-08
141,700000000,141.7,imu_link,0.0010255558350685684,0.00204762038530024,0.007277600088172834,-9.368227574405605e-05,6.0616968047744454e-05,9.800103789111567,-4.615570795192555e-10,5.330484785044362e-08,-4.989105567432262e-08,0.9999999999999973,0.0;0.0;0.0;0.0;0.0;0.0;0.0;0.0;0.0,7.621289842063561e-05;0.0;0.0;0.0;7.621289842063561e-05;0.0;0.0;0.0;7.621289842063561e-05,3.999999975690116e-08;0.0;0.0;0.0;3.999999975690116e-08;0.0;0.0;0.0;3.999999975690116e-08
141,720000000,141.72,imu_link,-0.0019933303808876627,-0.013821187079118844,0.009727454190452959,0.00027029154454876543,0.0002563581132132886,9.799942021235704,-4.6155707965541354e-10,5.330484785065981e-08,-4.989105567432962e-08,0.9999999999999973,0.0;0.0;0.0;0.0;0.0;0.0;0.0;0.0;0.0,7.621289842063561e-05;0.0;0.0;0.0;7.621289842063561e-05;0.0;0.0;0.0;7.621289842063561e-05,3.999999975690116e-08;0.0;0.0;0.0;3.999999975690116e-08;0.0;0.0;0.0;3.999999975690116e-08
141,740000000,141.74,imu_link,0.0015898119595343608,-0.00026735124910712174,0.0041171896886410915,-9.57623481044932e-05,-0.00020909233365987845,9.800192057714089,-4.615570794614683e-10,5.3304847850764016e-08,-4.989105567434124e-08,0.9999999999999973,0.0;0.0;0.0;0.0;0.0;0.0;0.0;0.0;0.0,7.621289842063561e-05;0.0;0.0;0.0;7.621289842063561e-05;0.0;0.0;0.0;7.621289842063561e-05,3.999999975690116e-08;0.0;0.0;0.0;3.999999975690116e-08;0.0;0.0;0.0;3.999999975690116e-08
141,760000000,141.76,imu_link,-0.015145667998298367,-0.012211260497494521,0.014722859464332369,0.0002067613838539805,-4.31525844454318e-06,9.800233476400942,-4.61557079402421e-10,5.3304847850877664e-08,-4.9891055674356137e-08,0.9999999999999973,0.0;0.0;0.0;0.0;0.0;0.0;0.0;0.0;0.0,7.621289842063561e-05;0.0;0.0;0.0;7.621289842063561e-05;0.0;0.0;0.0;7.621289842063561e-05,3.999999975690116e-08;0.0;0.0;0.0;3.999999975690116e-08;0.0;0.0;0.0;3.999999975690116e-08
141,780000000,141.78,imu_link,-0.0032118605284493064,0.0003374859064010811,0.0044902309814743606,0.00013349068614389203,-9.76757085154666e-05,9.799790850378642,-4.6155707950080247e-10,5.3304847850381865e-08,-4.989105567437178e-08,0.9999999999999973,0.0;0.0;0.0;0.0;0.0;0.0;0.0;0.0;0.0,7.621289842063561e-05;0.0;0.0;0.0;7.621289842063561e-05;0.0;0.0;0.0;7.621289842063561e-05,3.999999975690116e-08;0.0;0.0;0.0;3.999999975690116e-08;0.0;0.0;0.0;3.999999975690116e-08
141,800000000,141.8,imu_link,-0.0030028448688311222,-0.004368353549511666,0.0015280880318513396,0.0003236703844220016,-0.0004906585513871286,9.800047554828808,-4.6155707964841487e-10,5.330484785072209e-08,-4.989105567438694e-08,0.9999999999999973,0.0;0.0;0.0;0.0;0.0;0.0;0.0;0.0;0.0,7.621289842063561e-05;0.0;0.0;0.0;7.621289842063561e-05;0.0;0.0;0.0;7.621289842063561e-05,3.999999975690116e-08;0.0;0.0;0.0;3.999999975690116e-08;0.0;0.0;0.0;3.999999975690116e-08
141,820000000,141.82,imu_link,0.0015484009503883912,-0.008572262541514414,0.00857531479164381,0.00044207542814475966,0.00012843954673009693,9.799898998557472,-4.6155707942179664e-10,5.3304847850829694e-08,-4.9891055674403464e-08,0.9999999999999973,0.0;0.0;0.0;0.0;0.0;0.0;0.0;0.0;0.0,7.621289842063561e-05;0.0;0.0;0.0;7.621289842063561e-05;0.0;0.0;0.0;7.621289842063561e-05,3.999999975690116e-08;0.0;0.0;0.0;3.999999975690116e-08;0.0;0.0;0.0;3.999999975690116e-08
141,840000000,141.84,imu_link,-0.0007145303699696496,0.004581134505252699,0.014207909655301101,-3.786594431451999e-06,-0.0005478606577526241,9.800116643531119,-4.615570795225313e-10,5.3304847850342385e-08,-4.989105567441991e-08,0.9999999999999973,0.0;0.0;0.0;0.0;0.0;0.0;0.0;0.0;0.0,7.621289842063561e-05;0.0;0.0;0.0;7.621289842063561e-05;0.0;0.0;0.0;7.621289842063561e-05,3.999999975690116e-08;0.0;0.0;0.0;3.999999975690116e-08;0.0;0.0;0.0;3.999999975690116e-08
141,860000000,141.86,imu_link,-0.004346442220182675,-0.005029800527683769,0.0020490737051412408,0.0002554325014941119,-0.0002786688592927967,9.800127951576068,-4.615570795593149e-10,5.3304847850491384e-08,-4.989105567443702e-08,0.9999999999999973,0.0;0.0;0.0;0.0;0.0;0.0;0.0;0.0;0.0,7.621289842063561e-05;0.0;0.0;0.0;7.621289842063561e-05;0.0;0.0;0.0;7.621289842063561e-05,3.999999975690116e-08;0.0;0.0;0.0;3.999999975690116e-08;0.0;0.0;0.0;3.999999975690116e-08
141,880000000,141.88,imu_link,-0.003273106280646891,-0.006584081476800259,0.011791517216897007,0.00039082101540913086,-0.0003653808447431035,9.800205707015177,-4.6155707936737343e-10,5.330484785059991e-08,-4.9891055674453764e-08,0.9999999999999973,0.0;0.0;0.0;0.0;0.0;0.0;0.0;0.0;0.0,7.621289842063561e-05;0.0;0.0;0.0;7.621289842063561e-05;0.0;0.0;0.0;7.621289842063561e-05,3.999999975690116e-08;0.0;0.0;0.0;3.999999975690116e-08;0.0;0.0;0.0;3.999999975690116e-08
141,900000000,141.9,imu_link,0.007885537290803872,-0.004151187174514819,0.004741617503125686,0.00031777575226427394,-0.00010558398064217889,9.800164736236924,-4.6155707953675355e-10,5.330484785028789e-08,-4.9891055674470976e-08,0.9999999999999973,0.0;0.0;0.0;0.0;0.0;0.0;0.0;0.0;0.0,7.621289842063561e-05;0.0;0.0;0.0;7.621289842063561e-05;0.0;0.0;0.0;7.621289842063561e-05,3.999999975690116e-08;0.0;0.0;0.0;3.999999975690116e-08;0.0;0.0;0.0;3.999999975690116e-08
141,920000000,141.92,imu_link,0.006715933640756757,-0.012960830777203447,0.014798640399017494,-6.337834830551975e-05,-0.0001660342037260231,9.80053550418421,-4.6155707959409335e-10,5.3304847850454935e-08,-4.989105567448795e-08,0.9999999999999973,0.0;0.0;0.0;0.0;0.0;0.0;0.0;0.0;0.0,7.621289842063561e-05;0.0;0.0;0.0;7.621289842063561e-05;0.0;0.0;0.0;7.621289842063561e-05,3.999999975690116e-08;0.0;0.0;0.0;3.999999975690116e-08;0.0;0.0;0.0;3.999999975690116e-08
141,940000000,141.94,imu_link,-0.0017656999680145304,-0.008816744630807812,0.009230943975213644,4.746874907509584e-06,-0.00011306878323528343,9.799859015743554,-4.615570793996644e-10,5.3304847850562236e-08,-4.9891055674506875e-08,0.9999999999999973,0.0;0.0;0.0;0.0;0.0;0.0;0.0;0.0;0.0,7.621289842063561e-05;0.0;0.0;0.0;7.621289842063561e-05;0.0;0.0;0.0;7.621289842063561e-05,3.999999975690116e-08;0.0;0.0;0.0;3.999999975690116e-08;0.0;0.0;0.0;3.999999975690116e-08
141,960000000,141.96,imu_link,-0.0028436059805624215,-0.006123425842813708,-0.0029771861105946477,-3.6071447908061986e-05,-0.0004927299067566349,9.799958479194386,-4.6155707946509955e-10,5.330484785072339e-08,-4.9891055674524e-08,0.9999999999999973,0.0;0.0;0.0;0.0;0.0;0.0;0.0;0.0;0.0,7.621289842063561e-05;0.0;0.0;0.0;7.621289842063561e-05;0.0;0.0;0.0;7.621289842063561e-05,3.999999975690116e-08;0.0;0.0;0.0;3.999999975690116e-08;0.0;0.0;0.0;3.999999975690116e-08
141,980000000,141.98,imu_link,-0.0009284115468468135,0.00660102975057063,0.008501162985666335,0.00020944590708076784,-7.898051268768513e-05,9.800374155160979,-4.615570794056609e-10,5.3304847850830633e-08,-4.9891055674540684e-08,0.9999999999999973,0.0;0.0;0.0;0.0;0.0;0.0;0.0;0.0;0.0,7.621289842063561e-05;0.0;0.0;0.0;7.621289842063561e-05;0.0;0.0;0.0;7.621289842063561e-05,3.999999975690116e-08;0.0;0.0;0.0;3.999999975690116e-08;0.0;0.0;0.0;3.999999975690116e-08
142,0,142.0,imu_link,0.0075358743742695525,0.011525661652651651,0.022943868364445973,0.00046569516224184997,-0.00021841384075470266,9.799775510627452,-4.615570794504436e-10,5.330484785053008e-08,-4.9891055674557327e-08,0.9999999999999973,0.0;0.0;0.0;0.0;0.0;0.0;0.0;0.0;0.0,7.621289842063561e-05;0.0;0.0;0.0;7.621289842063561e-05;0.0;0.0;0.0;7.621289842063561e-05,3.999999975690116e-08;0.0;0.0;0.0;3.999999975690116e-08;0.0;0.0;0.0;3.999999975690116e-08
142,20000000,142.02,imu_link,-0.00025577285787634405,-0.0010959336213181813,0.005716133147695598,0.00023943896997008358,-7.018676675535996e-05,9.80030444120626,-4.615570795023976e-10,5.330484785069063e-08,-4.989105567457473e-08,0.9999999999999973,0.0;0.0;0.0;0.0;0.0;0.0;0.0;0.0;0.0,7.621289842063561e-05;0.0;0.0;0.0;7.621289842063561e-05;0.0;0.0;0.0;7.621289842063561e-05,3.999999975690116e-08;0.0;0.0;0.0;3.999999975690116e-08;0.0;0.0;0.0;3.999999975690116e-08
142,40000000,142.04,imu_link,0.005780308026615356,0.0005106251470945419,0.0039781088226251505,0.00015073159604053635,-0.00015934852765630284,9.800175331687829,-4.6155707955642763e-10,5.3304847850735256e-08,-4.989105567459183e-08,0.9999999999999973,0.0;0.0;0.0;0.0;0.0;0.0;0.0;0.0;0.0,7.621289842063561e-05;0.0;0.0;0.0;7.621289842063561e-05;0.0;0.0;0.0;7.621289842063561e-05,3.999999975690116e-08;0.0;0.0;0.0;3.999999975690116e-08;0.0;0.0;0.0;3.999999975690116e-08
142,60000000,142.06,imu_link,0.0190924190320565,0.01996552544635423,0.002669108481414789,0.00018119901690674694,2.3028736582840644e-05,9.800171639502713,-4.615570796030681e-10,5.3304847850427135e-08,-4.9891055674609605e-08,0.9999999999999973,0.0;0.0;0.0;0.0;0.0;0.0;0.0;0.0;0.0,7.621289842063561e-05;0.0;0.0;0.0;7.621289842063561e-05;0.0;0.0;0.0;7.621289842063561e-05,3.999999975690116e-08;0.0;0.0;0.0;3.999999975690116e-08;0.0;0.0;0.0;3.999999975690116e-08
142,80000000,142.08,imu_link,0.010489329966707376,-0.011978109368654316,0.011745722012131976,0.00010524324278600245,-0.00028435593803470007,9.799932710549676,-4.6155707953608457e-10,5.3304847850420954e-08,-4.989105567462696e-08,0.9999999999999973,0.0;0.0;0.0;0.0;0.0;0.0;0.0;0.0;0.0,7.621289842063561e-05;0.0;0.0;0.0;7.621289842063561e-05;0.0;0.0;0.0;7.621289842063561e-05,3.999999975690116e-08;0.0;0.0;0.0;3.999999975690116e-08;0.0;0.0;0.0;3.999999975690116e-08
142,100000000,142.1,imu_link,0.012427297694535504,-0.00423232341358403,0.010977188732530953,0.0004954952186742576,-0.00013242682175546654,9.800053276210633,-4.6155707942807624e-10,5.3304847850710216e-08,-4.989105567464478e-08,0.9999999999999973,0.0;0.0;0.0;0.0;0.0;0.0;0.0;0.0;0.0,7.621289842063561e-05;0.0;0.0;0.0;7.621289842063561e-05;0.0;0.0;0.0;7.621289842063561e-05,3.999999975690116e-08;0.0;0.0;0.0;3.999999975690116e-08;0.0;0.0;0.0;3.999999975690116e-08
142,120000000,142.12,imu_link,0.0024793091035200387,0.0030294771956294575,0.025713779798460745,6.333287749668142e-05,0.00013316042688083372,9.800146926384018,-4.615570794715778e-10,5.3304847850879014e-08,-4.9891055674662054e-08,0.9999999999999973,0.0;0.0;0.0;0.0;0.0;0.0;0.0;0.0;0.0,7.621289842063561e-05;0.0;0.0;0.0;7.621289842063561e-05;0.0;0.0;0.0;7.621289842063561e-05,3.999999975690116e-08;0.0;0.0;0.0;3.999999975690116e-08;0.0;0.0;0.0;3.999999975690116e-08
142,140000000,142.14,imu_link,0.008666334868349224,-0.011415153811451572,0.01139275293680033,0.00023448504023667143,-7.537772895136721e-05,9.80012118825607,-4.6155707943413523e-10,5.3304847850328614e-08,-4.989105567468008e-08,0.9999999999999973,0.0;0.0;0.0;0.0;0.0;0.0;0.0;0.0;0.0,7.621289842063561e-05;0.0;0.0;0.0;7.621289842063561e-05;0.0;0.0;0.0;7.621289842063561e-05,3.999999975690116e-08;0.0;0.0;0.0;3.999999975690116e-08;0.0;0.0;0.0;3.999999975690116e-08
142,160000000,142.16,imu_link,0.013773295519687931,0.0014133196765898322,0.0015402472512279445,0.00018163772752898146,9.126768822669434e-05,9.800202532141432,-4.6155707948927674e-10,5.330484785049044e-08,-4.9891055674696856e-08,0.9999999999999973,0.0;0.0;0.0;0.0;0.0;0.0;0.0;0.0;0.0,7.621289842063561e-05;0.0;0.0;0.0;7.621289842063561e-05;0.0;0.0;0.0;7.621289842063561e-05,3.999999975690116e-08;0.0;0.0;0.0;3.999999975690116e-08;0.0;0.0;0.0;3.999999975690116e-08
142,180000000,142.18,imu_link,0.004739640687744323,-0.010532714520951225,0.019364678896501314,0.00028808049545365035,-0.0002841462249556146,9.799853323719601,-4.6155707954912854e-10,5.330484785065014e-08,-4.989105567471635e-08,0.9999999999999973,0.0;0.0;0.0;0.0;0.0;0.0;0.0;0.0;0.0,7.621289842063561e-05;0.0;0.0;0.0;7.621289842063561e-05;0.0;0.0;0.0;7.621289842063561e-05,3.999999975690116e-08;0.0;0.0;0.0;3.999999975690116e-08;0.0;0.0;0.0;3.999999975690116e-08
142,200000000,142.2,imu_link,0.0008644185651300064,-0.000779618561631899,0.025186829700389747,0.000417792833539299,-0.00014910711868756698,9.799887960045467,-4.6155707947942844e-10,5.3304847850302105e-08,-4.989105567473419e-08,0.9999999999999973,0.0;0.0;0.0;0.0;0.0;0.0;0.0;0.0;0.0,7.621289842063561e-05;0.0;0.0;0.0;7.621289842063561e-05;0.0;0.0;0.0;7.621289842063561e-05,3.999999975690116e-08;0.0;0.0;0.0;3.999999975690116e-08;0.0;0.0;0.0;3.999999975690116e-08
142,220000000,142.22,imu_link,-0.01850856387056449,-0.018777502527384055,-0.005738217812855554,0.00024355004323231637,-0.00010325073229523063,9.800403097403219,-4.6155707953128734e-10,5.330484785046155e-08,-4.98910556747517e-08,0.9999999999999973,0.0;0.0;0.0;0.0;0.0;0.0;0.0;0.0;0.0,7.621289842063561e-05;0.0;0.0;0.0;7.621289842063561e-05;0.0;0.0;0.0;7.621289842063561e-05,3.999999975690116e-08;0.0;0.0;0.0;3.999999975690116e-08;0.0;0.0;0.0;3.999999975690116e-08
142,240000000,142.24,imu_link,-0.011473681018904941,-0.007893734733291103,0.0068516304625822495,-3.311623056124932e-05,-0.00021004059757024393,9.800348602411647,-4.6155707958226544e-10,5.330484785062304e-08,-4.989105567476903e-08,0.9999999999999973,0.0;0.0;0.0;0.0;0.0;0.0;0.0;0.0;0.0,7.621289842063561e-05;0.0;0.0;0.0;7.621289842063561e-05;0.0;0.0;0.0;7.621289842063561e-05,3.999999975690116e-08;0.0;0.0;0.0;3.999999975690116e-08;0.0;0.0;0.0;3.999999975690116e-08
142,260000000,142.26,imu_link,0.0013341434082429927,-0.001030856962219442,0.012313599106844673,-0.00016715139724525133,-0.00012729490503563543,9.799906077074882,-4.615570793953578e-10,5.330484785073651e-08,-4.989105567478795e-08,0.9999999999999973,0.0;0.0;0.0;0.0;0.0;0.0;0.0;0.0;0.0,7.621289842063561e-05;0.0;0.0;0.0;7.621289842063561e-05;0.0;0.0;0.0;7.621289842063561e-05,3.999999975690116e-08;0.0;0.0;0.0;3.999999975690116e-08;0.0;0.0;0.0;3.999999975690116e-08
142,280000000,142.28,imu_link,-0.016855079447300882,-0.00883783040695638,0.008566021754434093,0.00018902275965984567,-0.00030034596190457556,9.800048548320758,-4.6155707957254716e-10,5.3304847850429795e-08,-4.989105567480513e-08,0.9999999999999973,0.0;0.0;0.0;0.0;0.0;0.0;0.0;0.0;0.0,7.621289842063561e-05;0.0;0.0;0.0;7.621289842063561e-05;0.0;0.0;0.0;7.621289842063561e-05,3.999999975690116e-08;0.0;0.0;0.0;3.999999975690116e-08;0.0;0.0;0.0;3.999999975690116e-08
142,300000000,142.3,imu_link,0.0038188435437305442,-0.009710531447304658,0.016142630186877158,7.015924584568984e-05,-1.3264936924737027e-05,9.800202201735011,-4.6155707937015876e-10,5.330484785054169e-08,-4.9891055674825664e-08,0.9999999999999973,0.0;0.0;0.0;0.0;0.0;0.0;0.0;0.0;0.0,7.621289842063561e-05;0.0;0.0;0.0;7.621289842063561e-05;0.0;0.0;0.0;7.621289842063561e-05,3.999999975690116e-08;0.0;0.0;0.0;3.999999975690116e-08;0.0;0.0;0.0;3.999999975690116e-08
142,320000000,142.32,imu_link,-0.0013099626918761649,0.007512372182718236,0.009003607921646627,0.00030598714819171543,0.00011214488385765365,9.799846974399914,-4.6155707942227925e-10,5.3304847850694665e-08,-4.989105567484298e-08,0.9999999999999973,0.0;0.0;0.0;0.0;0.0;0.0;0.0;0.0;0.0,7.621289842063561e-05;0.0;0.0;0.0;7.621289842063561e-05;0.0;0.0;0.0;7.621289842063561e-05,3.999999975690116e-08;0.0;0.0;0.0;3.999999975690116e-08;0.0;0.0;0.0;3.999999975690116e-08
142,340000000,142.34,imu_link,0.004606423359042787,0.005222676194484639,0.02199103415588269,0.0001617248279228952,-0.0003472824325653426,9.800513869923135,-4.615570794528088e-10,5.330484785085355e-08,-4.98910556748601e-08,0.9999999999999973,0.0;0.0;0.0;0.0;0.0;0.0;0.0;0.0;0.0,7.621289842063561e-05;0.0;0.0;0.0;7.621289842063561e-05;0.0;0.0;0.0;7.621289842063561e-05,3.999999975690116e-08;0.0;0.0;0.0;3.999999975690116e-08;0.0;0.0;0.0;3.999999975690116e-08
142,360000000,142.36,imu_link,-0.004372407944711922,-0.0010259398126083565,0.008734622691395683,7.531073757644218e-05,8.892248998267515e-05,9.80019466612272,-4.6155707950284664e-10,5.330484785055411e-08,-4.9891055674876764e-08,0.9999999999999973,0.0;0.0;0.0;0.0;0.0;0.0;0.0;0.0;0.0,7.621289842063561e-05;0.0;0.0;0.0;7.621289842063561e-05;0.0;0.0;0.0;7.621289842063561e-05,3.999999975690116e-08;0.0;0.0;0.0;3.999999975690116e-08;0.0;0.0;0.0;3.999999975690116e-08
142,380000000,142.38,imu_link,-0.007977507501290284,-0.00117579850972648,0.018769396326599186,-1.3959496682566677e-05,0.00013551663838644952,9.80007959424161,-4.6155707965517573e-10,5.330484785071295e-08,-4.9891055674893645e-08,0.9999999999999973,0.0;0.0;0.0;0.0;0.0;0.0;0.0;0.0;0.0,7.621289842063561e-05;0.0;0.0;0.0;7.621289842063561e-05;0.0;0.0;0.0;7.621289842063561e-05,3.999999975690116e-08;0.0;0.0;0.0;3.999999975690116e-08;0.0;0.0;0.0;3.999999975690116e-08
142,400000000,142.4,imu_link,-0.002447508563165526,-0.00727950569061344,0.016093323123184903,0.00021188743385680645,-7.82948232048324e-05,9.800302569599735,-4.615570794611632e-10,5.330484785070231e-08,-4.989105567491187e-08,0.9999999999999973,0.0;0.0;0.0;0.0;0.0;0.0;0.0;0.0;0.0,7.621289842063561e-05;0.0;0.0;0.0;7.621289842063561e-05;0.0;0.0;0.0;7.621289842063561e-05,3.999999975690116e-08;0.0;0.0;0.0;3.999999975690116e-08;0.0;0.0;0.0;3.999999975690116e-08
142,420000000,142.42,imu_link,-0.004455416380690691,0.0008298320547785043,0.00029805639401544494,0.00021378670823301747,2.180079348615172e-06,9.799880790396355,-4.61557079380198e-10,5.330484785034959e-08,-4.989105567492968e-08,0.9999999999999973,0.0;0.0;0.0;0.0;0.0;0.0;0.0;0.0;0.0,7.621289842063561e-05;0.0;0.0;0.0;7.621289842063561e-05;0.0;0.0;0.0;7.621289842063561e-05,3.999999975690116e-08;0.0;0.0;0.0;3.999999975690116e-08;0.0;0.0;0.0;3.999999975690116e-08
142,440000000,142.44,imu_link,0.0012376610793515598,0.00012040345325680854,0.001105409219191049,8.17527817134145e-05,-0.00013235503172577496,9.79990513419436,-4.6155707951303223e-10,5.3304847850567206e-08,-4.989105567494511e-08,0.9999999999999973,0.0;0.0;0.0;0.0;0.0;0.0;0.0;0.0;0.0,7.621289842063561e-05;0.0;0.0;0.0;7.621289842063561e-05;0.0;0.0;0.0;7.621289842063561e-05,3.999999975690116e-08;0.0;0.0;0.0;3.999999975690116e-08;0.0;0.0;0.0;3.999999975690116e-08
142,460000000,142.46,imu_link,-0.005935139797065925,-0.00920393280258121,0.011424657489152678,9.345010182468435e-05,-0.0002991066394308679,9.800262464293931,-4.6155707943799646e-10,5.3304847850567014e-08,-4.989105567496224e-08,0.9999999999999973,0.0;0.0;0.0;0.0;0.0;0.0;0.0;0.0;0.0,7.621289842063561e-05;0.0;0.0;0.0;7.621289842063561e-05;0.0;0.0;0.0;7.621289842063561e-05,3.999999975690116e-08;0.0;0.0;0.0;3.999999975690116e-08;0.0;0.0;0.0;3.999999975690116e-08
142,480000000,142.48,imu_link,-0.0034762638433670986,-0.007044038776870688,0.025929660575085847,0.0002641318793239762,0.000140464352118728,9.80002456234221,-4.6155707947403196e-10,5.330484785074341e-08,-4.989105567498044e-08,0.9999999999999973,0.0;0.0;0.0;0.0;0.0;0.0;0.0;0.0;0.0,7.621289842063561e-05;0.0;0.0;0.0;7.621289842063561e-05;0.0;0.0;0.0;7.621289842063561e-05,3.999999975690116e-08;0.0;0.0;0.0;3.999999975690116e-08;0.0;0.0;0.0;3.999999975690116e-08
142,500000000,142.5,imu_link,-0.0012116714685842394,-0.0005331782724987489,0.0002176570665394298,0.00020532715760599325,-9.004617231238696e-05,9.800094238142487,-4.6155707954518873e-10,5.330484785026155e-08,-4.9891055674997056e-08,0.9999999999999973,0.0;0.0;0.0;0.0;0.0;0.0;0.0;0.0;0.0,7.621289842063561e-05;0.0;0.0;0.0;7.621289842063561e-05;0.0;0.0;0.0;7.621289842063561e-05,3.999999975690116e-08;0.0;0.0;0.0;3.999999975690116e-08;0.0;0.0;0.0;3.999999975690116e-08
142,520000000,142.52,imu_link,0.007860558339537693,-0.00827370223972855,0.028202717928199384,0.00041184957142888164,-0.00023343809748223727,9.79994719901509,-4.615570795831129e-10,5.3304847850429464e-08,-4.989105567501359e-08,0.9999999999999973,0.0;0.0;0.0;0.0;0.0;0.0;0.0;0.0;0.0,7.621289842063561e-05;0.0;0.0;0.0;7.621289842063561e-05;0.0;0.0;0.0;7.621289842063561e-05,3.999999975690116e-08;0.0;0.0;0.0;3.999999975690116e-08;0.0;0.0;0.0;3.999999975690116e-08
142,540000000,142.54,imu_link,-0.021051903228626333,-0.005394979429684198,-0.000819444756701317,0.00022207266267342625,-0.00039143302530582217,9.800546886447734,-4.615570793668148e-10,5.3304847850543675e-08,-4.989105567503032e-08,0.9999999999999973,0.0;0.0;0.0;0.0;0.0;0.0;0.0;0.0;0.0,7.621289842063561e-05;0.0;0.0;0.0;7.621289842063561e-05;0.0;0.0;0.0;7.621289842063561e-05,3.999999975690116e-08;0.0;0.0;0.0;3.999999975690116e-08;0.0;0.0;0.0;3.999999975690116e-08
142,560000000,142.56,imu_link,0.0019456109658400858,0.011802280667841704,0.01168486559575101,0.0004987669050808974,0.00014486762097520796,9.800200188009072,-4.615570795129573e-10,5.3304847850878504e-08,-4.989105567504575e-08,0.9999999999999973,0.0;0.0;0.0;0.0;0.0;0.0;0.0;0.0;0.0,7.621289842063561e-05;0.0;0.0;0.0;7.621289842063561e-05;0.0;0.0;0.0;7.621289842063561e-05,3.999999975690116e-08;0.0;0.0;0.0;3.999999975690116e-08;0.0;0.0;0.0;3.999999975690116e-08
142,580000000,142.58,imu_link,0.00755013070705294,-0.00546415284904452,-0.0031102518564754093,-8.609556621986327e-05,-0.0002048969374400745,9.800378795715599,-4.615570794873954e-10,5.330484785032417e-08,-4.989105567506233e-08,0.9999999999999973,0.0;0.0;0.0;0.0;0.0;0.0;0.0;0.0;0.0,7.621289842063561e-05;0.0;0.0;0.0;7.621289842063561e-05;0.0;0.0;0.0;7.621289842063561e-05,3.999999975690116e-08;0.0;0.0;0.0;3.999999975690116e-08;0.0;0.0;0.0;3.999999975690116e-08
142,600000000,142.6,imu_link,-0.003700436575072153,0.011720330850235949,0.0045764494757924755,-0.00018279711606988824,-0.0003032151350612045,9.799981186857499,-4.615570794782336e-10,5.330484785067389e-08,-4.989105567507727e-08,0.9999999999999973,0.0;0.0;0.0;0.0;0.0;0.0;0.0;0.0;0.0,7.621289842063561e-05;0.0;0.0;0.0;7.621289842063561e-05;0.0;0.0;0.0;7.621289842063561e-05,3.999999975690116e-08;0.0;0.0;0.0;3.999999975690116e-08;0.0;0.0;0.0;3.999999975690116e-08
142,620000000,142.62,imu_link,0.002120520707830479,-0.00031136588228039883,0.013796677673133088,-0.00014507165934681871,-0.00017232715730541425,9.799916180047424,-4.615570794327816e-10,5.3304847850775424e-08,-4.9891055675092526e-08,0.9999999999999973,0.0;0.0;0.0;0.0;0.0;0.0;0.0;0.0;0.0,7.621289842063561e-05;0.0;0.0;0.0;7.621289842063561e-05;0.0;0.0;0.0;7.621289842063561e-05,3.999999975690116e-08;0.0;0.0;0.0;3.999999975690116e-08;0.0;0.0;0.0;3.999999975690116e-08
142,640000000,142.64,imu_link,0.005257245271721639,0.0029664510094195434,0.0024326838464759134,0.0001834997403849745,0.00015273718318712558,9.799992514732581,-4.6155707952417224e-10,5.330484785028423e-08,-4.989105567510762e-08,0.9999999999999973,0.0;0.0;0.0;0.0;0.0;0.0;0.0;0.0;0.0,7.621289842063561e-05;0.0;0.0;0.0;7.621289842063561e-05;0.0;0.0;0.0;7.621289842063561e-05,3.999999975690116e-08;0.0;0.0;0.0;3.999999975690116e-08;0.0;0.0;0.0;3.999999975690116e-08
142,660000000,142.66,imu_link,-0.003298167675938791,-0.005396852000792312,0.01129484598822785,-3.465986783681701e-05,0.00016162310399820648,9.799766653686003,-4.615570794683094e-10,5.330484785039505e-08,-4.989105567512272e-08,0.9999999999999973,0.0;0.0;0.0;0.0;0.0;0.0;0.0;0.0;0.0,7.621289842063561e-05;0.0;0.0;0.0;7.621289842063561e-05;0.0;0.0;0.0;7.621289842063561e-05,3.999999975690116e-08;0.0;0.0;0.0;3.999999975690116e-08;0.0;0.0;0.0;3.999999975690116e-08
142,680000000,142.68,imu_link,0.00269132288060255,-0.0012511971753688179,0.02772349158080832,-0.00015673921235917184,-0.00010245075980446923,9.800162562738597,-4.6155707953176984e-10,5.330484785056153e-08,-4.9891055675137875e-08,0.9999999999999973,0.0;0.0;0.0;0.0;0.0;0.0;0.0;0.0;0.0,7.621289842063561e-05;0.0;0.0;0.0;7.621289842063561e-05;0.0;0.0;0.0;7.621289842063561e-05,3.999999975690116e-08;0.0;0.0;0.0;3.999999975690116e-08;0.0;0.0;0.0;3.999999975690116e-08
142,700000000,142.7,imu_link,-0.02826814281756601,-0.02292632035941896,0.0030292001046082675,0.00015141429189689673,-6.813791589245591e-05,9.79989086720371,-4.6155707968283985e-10,5.330484785089069e-08,-4.989105567515594e-08,0.9999999999999973,0.0;0.0;0.0;0.0;0.0;0.0;0.0;0.0;0.0,7.621289842063561e-05;0.0;0.0;0.0;7.621289842063561e-05;0.0;0.0;0.0;7.621289842063561e-05,3.999999975690116e-08;0.0;0.0;0.0;3.999999975690116e-08;0.0;0.0;0.0;3.999999975690116e-08
142,720000000,142.72,imu_link,-0.007135511265890632,0.005274909050825343,0.005787099380970386,-1.1282852024955205e-05,-0.0001331125913925873,9.800250481833118,-4.6155707952156853e-10,5.3304847850346495e-08,-4.989105567517253e-08,0.9999999999999973,0.0;0.0;0.0;0.0;0.0;0.0;0.0;0.0;0.0,7.621289842063561e-05;0.0;0.0;0.0;7.621289842063561e-05;0.0;0.0;0.0;7.621289842063561e-05,3.999999975690116e-08;0.0;0.0;0.0;3.999999975690116e-08;0.0;0.0;0.0;3.999999975690116e-08
142,740000000,142.74,imu_link,0.019953560689971922,0.0063409568527342955,-0.008935013143642064,0.00044165697046057086,-2.670353720856972e-05,9.800480592682788,-4.6155707958134546e-10,5.3304847850499966e-08,-4.989105567519017e-08,0.9999999999999973,0.0;0.0;0.0;0.0;0.0;0.0;0.0;0.0;0.0,7.621289842063561e-05;0.0;0.0;0.0;7.621289842063561e-05;0.0;0.0;0.0;7.621289842063561e-05,3.999999975690116e-08;0.0;0.0;0.0;3.999999975690116e-08;0.0;0.0;0.0;3.999999975690116e-08
142,760000000,142.76,imu_link,-0.002814968670358867,0.010906373194692875,0.006128188767614033,0.00031399359033132683,-0.0003425105876537725,9.799751410674094,-4.6155707952179776e-10,5.3304847850607076e-08,-4.989105567520769e-08,0.9999999999999973,0.0;0.0;0.0;0.0;0.0;0.0;0.0;0.0;0.0,7.621289842063561e-05;0.0;0.0;0.0;7.621289842063561e-05;0.0;0.0;0.0;7.621289842063561e-05,3.999999975690116e-08;0.0;0.0;0.0;3.999999975690116e-08;0.0;0.0;0.0;3.999999975690116e-08
142,780000000,142.78,imu_link,0.006617032573280876,0.0014626741072215784,-0.005363609881659145,-0.00020925659734477033,0.00012283534607216318,9.800018190619996,-4.615570795628567e-10,5.330484785029927e-08,-4.9891055675225444e-08,0.9999999999999973,0.0;0.0;0.0;0.0;0.0;0.0;0.0;0.0;0.0,7.621289842063561e-05;0.0;0.0;0.0;7.621289842063561e-05;0.0;0.0;0.0;7.621289842063561e-05,3.999999975690116e-08;0.0;0.0;0.0;3.999999975690116e-08;0.0;0.0;0.0;3.999999975690116e-08
142,800000000,142.8,imu_link,0.00530436018747547,0.0036852679369300326,0.01884112191718803,-0.00037882554037478236,-4.0630601476373586e-05,9.800289153768377,-4.615570793775183e-10,5.330484785040963e-08,-4.989105567524365e-08,0.9999999999999973,0.0;0.0;0.0;0.0;0.0;0.0;0.0;0.0;0.0,7.621289842063561e-05;0.0;0.0;0.0;7.621289842063561e-05;0.0;0.0;0.0;7.621289842063561e-05,3.999999975690116e-08;0.0;0.0;0.0;3.999999975690116e-08;0.0;0.0;0.0;3.999999975690116e-08
142,820000000,142.82,imu_link,-0.0069744433062211494,-0.006350682609047754,0.00808852792651633,0.00022609895855554884,-3.884551655619716e-05,9.800267361165776,-4.615570795613613e-10,5.330484785055956e-08,-4.989105567526102e-08,0.9999999999999973,0.0;0.0;0.0;0.0;0.0;0.0;0.0;0.0;0.0,7.621289842063561e-05;0.0;0.0;0.0;7.621289842063561e-05;0.0;0.0;0.0;7.621289842063561e-05,3.999999975690116e-08;0.0;0.0;0.0;3.999999975690116e-08;0.0;0.0;0.0;3.999999975690116e-08
142,840000000,142.84,imu_link,-0.003697522869886397,0.007479562807468175,-0.003156054852718384,0.00013594682866057916,-0.00021292199369789115,9.800085905322563,-4.615570796024663e-10,5.330484785071193e-08,-4.9891055675280514e-08,0.9999999999999973,0.0;0.0;0.0;0.0;0.0;0.0;0.0;0.0;0.0,7.621289842063561e-05;0.0;0.0;0.0;7.621289842063561e-05;0.0;0.0;0.0;7.621289842063561e-05,3.999999975690116e-08;0.0;0.0;0.0;3.999999975690116e-08;0.0;0.0;0.0;3.999999975690116e-08
142,860000000,142.86,imu_link,-0.0029123981396286898,-0.009079003411086485,0.01599643133604843,-2.205650312147049e-05,2.542211416535527e-06,9.80011134280134,-4.61557079408944e-10,5.3304847850360676e-08,-4.989105567529808e-08,0.9999999999999973,0.0;0.0;0.0;0.0;0.0;0.0;0.0;0.0;0.0,7.621289842063561e-05;0.0;0.0;0.0;7.621289842063561e-05;0.0;0.0;0.0;7.621289842063561e-05,3.999999975690116e-08;0.0;0.0;0.0;3.999999975690116e-08;0.0;0.0;0.0;3.999999975690116e-08
142,880000000,142.88,imu_link,-0.01025261620850231,0.000121919118853754,0.015175392027374047,6.410344913052515e-05,-1.4476736224182992e-05,9.800135149242145,-4.615570795994188e-10,5.3304847850513896e-08,-4.989105567531638e-08,0.9999999999999973,0.0;0.0;0.0;0.0;0.0;0.0;0.0;0.0;0.0,7.621289842063561e-05;0.0;0.0;0.0;7.621289842063561e-05;0.0;0.0;0.0;7.621289842063561e-05,3.999999975690116e-08;0.0;0.0;0.0;3.999999975690116e-08;0.0;0.0;0.0;3.999999975690116e-08
142,900000000,142.9,imu_link,-0.009011870272576671,0.009142253766348134,0.003374062902213033,2.4798966357062746e-05,-0.0003408721632106902,9.800014179426265,-4.6155707940659084e-10,5.330484785062211e-08,-4.989105567533486e-08,0.9999999999999973,0.0;0.0;0.0;0.0;0.0;0.0;0.0;0.0;0.0,7.621289842063561e-05;0.0;0.0;0.0;7.621289842063561e-05;0.0;0.0;0.0;7.621289842063561e-05,3.999999975690116e-08;0.0;0.0;0.0;3.999999975690116e-08;0.0;0.0;0.0;3.999999975690116e-08
142,920000000,142.92,imu_link,0.010810510618035181,0.00828054906893378,0.02089149968918258,6.335903188612276e-05,-0.0003705502245814023,9.800060375495827,-4.615570794441241e-10,5.330484785077008e-08,-4.9891055675355066e-08,0.9999999999999973,0.0;0.0;0.0;0.0;0.0;0.0;0.0;0.0;0.0,7.621289842063561e-05;0.0;0.0;0.0;7.621289842063561e-05;0.0;0.0;0.0;7.621289842063561e-05,3.999999975690116e-08;0.0;0.0;0.0;3.999999975690116e-08;0.0;0.0;0.0;3.999999975690116e-08
142,940000000,142.94,imu_link,0.010255287831628298,-0.004907449093211377,0.0012338404885048997,-9.427069846641573e-05,0.0001800662486807931,9.800108511136559,-4.615570793847105e-10,5.3304847850299504e-08,-4.989105567537144e-08,0.9999999999999973,0.0;0.0;0.0;0.0;0.0;0.0;0.0;0.0;0.0,7.621289842063561e-05;0.0;0.0;0.0;7.621289842063561e-05;0.0;0.0;0.0;7.621289842063561e-05,3.999999975690116e-08;0.0;0.0;0.0;3.999999975690116e-08;0.0;0.0;0.0;3.999999975690116e-08
142,960000000,142.96,imu_link,-0.0171378745564137,0.00960125972826182,0.024446546786906935,0.00013307327368137774,-0.0001125218572836101,9.800242268933262,-4.615570794155e-10,5.330484785047064e-08,-4.989105567538963e-08,0.9999999999999973,0.0;0.0;0.0;0.0;0.0;0.0;0.0;0.0;0.0,7.621289842063561e-05;0.0;0.0;0.0;7.621289842063561e-05;0.0;0.0;0.0;7.621289842063561e-05,3.999999975690116e-08;0.0;0.0;0.0;3.999999975690116e-08;0.0;0.0;0.0;3.999999975690116e-08
142,980000000,142.98,imu_link,-0.004701706152522319,0.005865821816302472,0.024142043898967562,9.093103943601938e-05,0.00021997651759581507,9.80037988216975,-4.615570794530811e-10,5.3304847850654874e-08,-4.989105567540633e-08,0.9999999999999973,0.0;0.0;0.0;0.0;0.0;0.0;0.0;0.0;0.0,7.621289842063561e-05;0.0;0.0;0.0;7.621289842063561e-05;0.0;0.0;0.0;7.621289842063561e-05,3.999999975690116e-08;0.0;0.0;0.0;3.999999975690116e-08;0.0;0.0;0.0;3.999999975690116e-08
143,0,143.0,imu_link,-0.004236555193531203,-0.004393596986801398,0.012103687468004925,7.024342154834839e-05,-9.830274321298606e-05,9.79979095281503,-4.615570795147701e-10,5.330484785029817e-08,-4.989105567542401e-08,0.9999999999999973,0.0;0.0;0.0;0.0;0.0;0.0;0.0;0.0;0.0,7.621289842063561e-05;0.0;0.0;0.0;7.621289842063561e-05;0.0;0.0;0.0;7.621289842063561e-05,3.999999975690116e-08;0.0;0.0;0.0;3.999999975690116e-08;0.0;0.0;0.0;3.999999975690116e-08
143,20000000,143.02,imu_link,0.0007314120209991181,-0.0018119801350538801,0.018356442541786425,0.0001469199321748138,-0.00039121834391430717,9.800314705726933,-4.6155707956724824e-10,5.330484785046216e-08,-4.989105567544113e-08,0.9999999999999973,0.0;0.0;0.0;0.0;0.0;0.0;0.0;0.0;0.0,7.621289842063561e-05;0.0;0.0;0.0;7.621289842063561e-05;0.0;0.0;0.0;7.621289842063561e-05,3.999999975690116e-08;0.0;0.0;0.0;3.999999975690116e-08;0.0;0.0;0.0;3.999999975690116e-08
143,40000000,143.04,imu_link,0.0019456036904992905,0.0037979594644175813,0.0003820656275197558,0.000390498758920675,-0.00019742214223912477,9.800131148340167,-4.615570795089205e-10,5.330484785045083e-08,-4.989105567545965e-08,0.9999999999999973,0.0;0.0;0.0;0.0;0.0;0.0;0.0;0.0;0.0,7.621289842063561e-05;0.0;0.0;0.0;7.621289842063561e-05;0.0;0.0;0.0;7.621289842063561e-05,3.999999975690116e-08;0.0;0.0;0.0;3.999999975690116e-08;0.0;0.0;0.0;3.999999975690116e-08
143,60000000,143.06,imu_link,-0.001984694284684074,-0.020353650621555336,-0.004079019328785665,-2.2913409324460044e-05,-8.978700449685845e-05,9.799755392712962,-4.6155707939178694e-10,5.330484785074058e-08,-4.98910556754774e-08,0.9999999999999973,0.0;0.0;0.0;0.0;0.0;0.0;0.0;0.0;0.0,7.621289842063561e-05;0.0;0.0;0.0;7.621289842063561e-05;0.0;0.0;0.0;7.621289842063561e-05,3.999999975690116e-08;0.0;0.0;0.0;3.999999975690116e-08;0.0;0.0;0.0;3.999999975690116e-08
143,80000000,143.08,imu_link,0.007385980223337939,-0.009315909304978998,0.011535849205185205,0.0003232486197142434,-0.00020269130025907126,9.799988468045385,-4.6155707957196353e-10,5.330484785044127e-08,-4.989105567549501e-08,0.9999999999999973,0.0;0.0;0.0;0.0;0.0;0.0;0.0;0.0;0.0,7.621289842063561e-05;0.0;0.0;0.0;7.621289842063561e-05;0.0;0.0;0.0;7.621289842063561e-05,3.999999975690116e-08;0.0;0.0;0.0;3.999999975690116e-08;0.0;0.0;0.0;3.999999975690116e-08
143,100000000,143.1,imu_link,0.0015475145339580662,0.01131466434545809,0.02085647619334597,0.00012075852143243999,0.00018428783476690577,9.800066396098169,-4.6155707949967373e-10,5.330484785043213e-08,-4.989105567551366e-08,0.9999999999999973,0.0;0.0;0.0;0.0;0.0;0.0;0.0;0.0;0.0,7.621289842063561e-05;0.0;0.0;0.0;7.621289842063561e-05;0.0;0.0;0.0;7.621289842063561e-05,3.999999975690116e-08;0.0;0.0;0.0;3.999999975690116e-08;0.0;0.0;0.0;3.999999975690116e-08
143,120000000,143.12,imu_link,0.017160503742327186,0.013774074649451561,0.015827258860512658,0.00025348198686299655,-0.00023217792152031464,9.799797800096878,-4.6155707954924403e-10,5.330484785059353e-08,-4.9891055675530296e-08,0.9999999999999973,0.0;0.0;0.0;0.0;0.0;0.0;0.0;0.0;0.0,7.621289842063561e-05;0.0;0.0;0.0;7.621289842063561e-05;0.0;0.0;0.0;7.621289842063561e-05,3.999999975690116e-08;0.0;0.0;0.0;3.999999975690116e-08;0.0;0.0;0.0;3.999999975690116e-08
143,140000000,143.14,imu_link,0.006522585898261047,-0.010516326351331044,0.008714146593106766,-0.0002515240752788338,3.744553876778778e-05,9.800327577797368,-4.615570794448757e-10,5.330484785088083e-08,-4.989105567554702e-08,0.9999999999999973,0.0;0.0;0.0;0.0;0.0;0.0;0.0;0.0;0.0,7.621289842063561e-05;0.0;0.0;0.0;7.621289842063561e-05;0.0;0.0;0.0;7.621289842063561e-05,3.999999975690116e-08;0.0;0.0;0.0;3.999999975690116e-08;0.0;0.0;0.0;3.999999975690116e-08
143,160000000,143.16,imu_link,0.008894306609714955,-0.022743903871510696,0.017499693303555205,0.0005960627029199307,0.0002960024424081661,9.800153291455192,-4.6155707951793406e-10,5.330484785040401e-08,-4.989105567556308e-08,0.9999999999999973,0.0;0.0;0.0;0.0;0.0;0.0;0.0;0.0;0.0,7.621289842063561e-05;0.0;0.0;0.0;7.621289842063561e-05;0.0;0.0;0.0;7.621289842063561e-05,3.999999975690116e-08;0.0;0.0;0.0;3.999999975690116e-08;0.0;0.0;0.0;3.999999975690116e-08
