time_sec,time_nsec,timestamp,frame_id,angular_vel_x,angular_vel_y,angular_vel_z,linear_acc_x,linear_acc_y,linear_acc_z,orient_x,orient_y,orient_z,orient_w,orientation_covariance,angular_velocity_covariance,linear_acceleration_covariance
197,140000000,197.14,imu_link,0.009936124450138256,0.0014460116773220713,0.0028306556619830175,0.00016477466273056283,0.00018317662622609586,9.800021615625107,-4.6155707968273066e-10,5.3304847850860584e-08,-4.989105571159379e-08,0.9999999999999973,0.0;0.0;0.0;0.0;0.0;0.0;0.0;0.0;0.0,7.621289842063561e-05;0.0;0.0;0.0;7.621289842063561e-05;0.0;0.0;0.0;7.621289842063561e-05,3.999999975690116e-08;0.0;0.0;0.0;3.999999975690116e-08;0.0;0.0;0.0;3.999999975690116e-08
197,160000000,197.16,imu_link,-0.011864068430966141,-0.017763661008020962,0.025752579211221687,0.0003999914235176292,-8.180541299132754e-05,9.800013466698687,-4.61557079536554e-10,5.330484785032128e-08,-4.9891055711606515e-08,0.9999999999999973,0.0;0.0;0.0;0.0;0.0;0.0;0.0;0.0;0.0,7.621289842063561e-05;0.0;0.0;0.0;7.621289842063561e-05;0.0;0.0;0.0;7.621289842063561e-05,3.999999975690116e-08;0.0;0.0;0.0;3.999999975690116e-08;0.0;0.0;0.0;3.999999975690116e-08
197,180000000,197.18,imu_link,-0.001100668557058776,-0.005948369291894674,0.015759032928438894,0.00010588004700861416,-0.00010916961706191373,9.800089438269957,-4.6155707952262494e-10,5.330484785042525e-08,-4.989105571162049e-08,0.9999999999999973,0.0;0.0;0.0;0.0;0.0;0.0;0.0;0.0;0.0,7.621289842063561e-05;0.0;0.0;0.0;7.621289842063561e-05;0.0;0.0;0.0;7.621289842063561e-05,3.999999975690116e-08;0.0;0.0;0.0;3.999999975690116e-08;0.0;0.0;0.0;3.999999975690116e-08
197,200000000,197.2,imu_link,0.012492033094078193,0.0010864798185104398,0.007961151578972724,0.0002871703843626279,1.0395971788369432e-05,9.80024085997129,-4.615570794483501e-10,5.330484785071403e-08,-4.989105571163434e-08,0.9999999999999973,0.0;0.0;0.0;0.0;0.0;0.0;0.0;0.0;0.0,7.621289842063561e-05;0.0;0.0;0.0;7.621289842063561e-05;0.0;0.0;0.0;7.621289842063561e-05,3.999999975690116e-08;0.0;0.0;0.0;3.999999975690116e-08;0.0;0.0;0.0;3.999999975690116e-08
197,220000000,197.22,imu_link,0.005064846617329236,0.0074987739705937445,0.0050154266881092145,0.0002792931627020476,0.0004323651741457782,9.799732118883167,-4.615570794256304e-10,5.330484785082834e-08,-4.989105571164673e-08,0.9999999999999973,0.0;0.0;0.0;0.0;0.0;0.0;0.0;0.0;0.0,7.621289842063561e-05;0.0;0.0;0.0;7.621289842063561e-05;0.0;0.0;0.0;7.621289842063561e-05,3.999999975690116e-08;0.0;0.0;0.0;3.999999975690116e-08;0.0;0.0;0.0;3.999999975690116e-08
197,240000000,197.24,imu_link,0.012521694912725027,-0.00031617231322758496,0.010433132736689735,-1.2387294321306437e-05,-0.00020228861297362594,9.800265992871385,-4.6155707940031755e-10,5.3304847850356196e-08,-4.9891055711660923e-08,0.9999999999999973,0.0;0.0;0.0;0.0;0.0;0.0;0.0;0.0;0.0,7.621289842063561e-05;0.0;0.0;0.0;7.621289842063561e-05;0.0;0.0;0.0;7.621289842063561e-05,3.999999975690116e-08;0.0;0.0;0.0;3.999999975690116e-08;0.0;0.0;0.0;3.999999975690116e-08
197,260000000,197.26,imu_link,-0.0013802831542324325,0.010376713948686736,0.0015411558194897788,0.00026319399679326886,0.00023742976793834173,9.800036471721185,-4.615570794671344e-10,5.330484785064216e-08,-4.989105571167329e-08,0.9999999999999973,0.0;0.0;0.0;0.0;0.0;0.0;0.0;0.0;0.0,7.621289842063561e-05;0.0;0.0;0.0;7.621289842063561e-05;0.0;0.0;0.0;7.621289842063561e-05,3.999999975690116e-08;0.0;0.0;0.0;3.999999975690116e-08;0.0;0.0;0.0;3.999999975690116e-08
197,280000000,197.28,imu_link,0.001397260763347871,0.006014257720093968,-0.00271109378568101,0.0003167279860920139,-8.325062845197796e-05,9.799893734818964,-4.615570794097195e-10,5.3304847850821124e-08,-4.9891055711688895e-08,0.9999999999999973,0.0;0.0;0.0;0.0;0.0;0.0;0.0;0.0;0.0,7.621289842063561e-05;0.0;0.0;0.0;7.621289842063561e-05;0.0;0.0;0.0;7.621289842063561e-05,3.999999975690116e-08;0.0;0.0;0.0;3.999999975690116e-08;0.0;0.0;0.0;3.999999975690116e-08
197,300000000,197.3,imu_link,-0.003818548918754651,0.000717315359174218,0.004936547792531686,8.127980496842123e-05,4.308595542267248e-05,9.80012414400465,-4.615570795323048e-10,5.330484785034161e-08,-4.989105571170163e-08,0.9999999999999973,0.0;0.0;0.0;0.0;0.0;0.0;0.0;0.0;0.0,7.621289842063561e-05;0.0;0.0;0.0;7.621289842063561e-05;0.0;0.0;0.0;7.621289842063561e-05,3.999999975690116e-08;0.0;0.0;0.0;3.999999975690116e-08;0.0;0.0;0.0;3.999999975690116e-08
197,320000000,197.32,imu_link,-0.0034750440059159848,-0.0073146772701602955,0.003964155736257717,0.000231877676766964,0.0003118210636584095,9.800235454321584,-4.6155707950799196e-10,5.330484785045374e-08,-4.989105571171478e-08,0.9999999999999973,0.0;0.0;0.0;0.0;0.0;0.0;0.0;0.0;0.0,7.621289842063561e-05;0.0;0.0;0.0;7.621289842063561e-05;0.0;0.0;0.0;7.621289842063561e-05,3.999999975690116e-08;0.0;0.0;0.0;3.999999975690116e-08;0.0;0.0;0.0;3.999999975690116e-08
197,340000000,197.34,imu_link,-0.014129105780986034,-0.0011879387529230027,-0.0268715182626637,0.00040037337896670164,0.00018518438399445572,9.800387375355836,-4.615570794434566e-10,5.330484785074919e-08,-4.9891055711729844e-08,0.9999999999999973,0.0;0.0;0.0;0.0;0.0;0.0;0.0;0.0;0.0,7.621289842063561e-05;0.0;0.0;0.0;7.621289842063561e-05;0.0;0.0;0.0;7.621289842063561e-05,3.999999975690116e-08;0.0;0.0;0.0;3.999999975690116e-08;0.0;0.0;0.0;3.999999975690116e-08
197,360000000,197.36,imu_link,0.004623431415515295,-0.0019846103777311328,-0.012596471803905912,0.00016293081161866782,0.0002633596650687517,9.8002423147461,-4.61557079408295e-10,5.330484785028363e-08,-4.989105571174415e-08,0.9999999999999973,0.0;0.0;0.0;0.0;0.0;0.0;0.0;0.0;0.0,7.621289842063561e-05;0.0;0.0;0.0;7.621289842063561e-05;0.0;0.0;0.0;7.621289842063561e-05,3.999999975690116e-08;0.0;0.0;0.0;3.999999975690116e-08;0.0;0.0;0.0;3.999999975690116e-08
197,380000000,197.38,imu_link,0.007178262279501006,0.008676062413392653,-0.008152917931056157,0.00020988481966264497,6.773355328466634e-05,9.79981009418495,-4.6155707958411693e-10,5.330484785051767e-08,-4.9891055711758246e-08,0.9999999999999973,0.0;0.0;0.0;0.0;0.0;0.0;0.0;0.0;0.0,7.621289842063561e-05;0.0;0.0;0.0;7.621289842063561e-05;0.0;0.0;0.0;7.621289842063561e-05,3.999999975690116e-08;0.0;0.0;0.0;3.999999975690116e-08;0.0;0.0;0.0;3.999999975690116e-08
197,400000000,197.4,imu_link,-0.008392167456624442,-0.010028045252064908,0.014652196363795077,0.000462951726343976,0.00018186551214069636,9.800186988809957,-4.615570794390581e-10,5.330484785062671e-08,-4.9891055711772996e-08,0.9999999999999973,0.0;0.0;0.0;0.0;0.0;0.0;0.0;0.0;0.0,7.621289842063561e-05;0.0;0.0;0.0;7.621289842063561e-05;0.0;0.0;0.0;7.621289842063561e-05,3.999999975690116e-08;0.0;0.0;0.0;3.999999975690116e-08;0.0;0.0;0.0;3.999999975690116e-08
197,420000000,197.42,imu_link,0.0029044818814762275,0.006242070521984925,0.009164786340865247,0.0001133333982025176,-0.0001814671610991607,9.800274015619694,-4.6155707952533153e-10,5.330484785078806e-08,-4.9891055711787575e-08,0.9999999999999973,0.0;0.0;0.0;0.0;0.0;0.0;0.0;0.0;0.0,7.621289842063561e-05;0.0;0.0;0.0;7.621289842063561e-05;0.0;0.0;0.0;7.621289842063561e-05,3.999999975690116e-08;0.0;0.0;0.0;3.999999975690116e-08;0.0;0.0;0.0;3.999999975690116e-08
197,440000000,197.44,imu_link,-0.008971820720120231,-0.0015747068200866379,-0.0021344317489245105,-0.00010281155741689136,0.00026730199922057386,9.800141946943729,-4.615570796320124e-10,5.3304847850429504e-08,-4.98910557118012e-08,0.9999999999999973,0.0;0.0;0.0;0.0;0.0;0.0;0.0;0.0;0.0,7.621289842063561e-05;0.0;0.0;0.0;7.621289842063561e-05;0.0;0.0;0.0;7.621289842063561e-05,3.999999975690116e-08;0.0;0.0;0.0;3.999999975690116e-08;0.0;0.0;0.0;3.999999975690116e-08
197,460000000,197.46,imu_link,-0.009903125283361696,-0.008112748876412593,-0.007906164004817907,0.0004603475532126152,0.00015202199275328768,9.799841814395373,-4.6155707946800585e-10,5.330484785056025e-08,-4.989105571181549e-08,0.9999999999999973,0.0;0.0;0.0;0.0;0.0;0.0;0.0;0.0;0.0,7.621289842063561e-05;0.0;0.0;0.0;7.621289842063561e-05;0.0;0.0;0.0;7.621289842063561e-05,3.999999975690116e-08;0.0;0.0;0.0;3.999999975690116e-08;0.0;0.0;0.0;3.999999975690116e-08
197,480000000,197.48,imu_link,0.0033270678268314154,-0.01882686754367847,-0.011981563788861357,-0.00030393294210131333,0.00016202299833795132,9.800428063536856,-4.6155707954649143e-10,5.3304847850608234e-08,-4.989105571182831e-08,0.9999999999999973,0.0;0.0;0.0;0.0;0.0;0.0;0.0;0.0;0.0,7.621289842063561e-05;0.0;0.0;0.0;7.621289842063561e-05;0.0;0.0;0.0;7.621289842063561e-05,3.999999975690116e-08;0.0;0.0;0.0;3.999999975690116e-08;0.0;0.0;0.0;3.999999975690116e-08
197,500000000,197.5,imu_link,-0.009020018603232139,-0.0041288767757930315,0.004006307534287735,-4.797442022036321e-05,0.00019297880009195575,9.800252001861061,-4.6155707953551283e-10,5.330484785024604e-08,-4.989105571184318e-08,0.9999999999999973,0.0;0.0;0.0;0.0;0.0;0.0;0.0;0.0;0.0,7.621289842063561e-05;0.0;0.0;0.0;7.621289842063561e-05;0.0;0.0;0.0;7.621289842063561e-05,3.999999975690116e-08;0.0;0.0;0.0;3.999999975690116e-08;0.0;0.0;0.0;3.999999975690116e-08
197,520000000,197.52,imu_link,0.007541446770048333,-0.003416555933322893,0.0026295652018033327,1.118704046393659e-05,0.00014617029066109019,9.800282493658536,-4.6155707961347574e-10,5.3304847850528825e-08,-4.989105571185676e-08,0.9999999999999973,0.0;0.0;0.0;0.0;0.0;0.0;0.0;0.0;0.0,7.621289842063561e-05;0.0;0.0;0.0;7.621289842063561e-05;0.0;0.0;0.0;7.621289842063561e-05,3.999999975690116e-08;0.0;0.0;0.0;3.999999975690116e-08;0.0;0.0;0.0;3.999999975690116e-08
197,540000000,197.54,imu_link,0.005551434805802436,0.0020093322608734864,-0.0013912259312629806,0.00029119983917861127,0.00029038212984640354,9.799976953829246,-4.615570794393874e-10,5.3304847850417453e-08,-4.989105571186836e-08,0.9999999999999973,0.0;0.0;0.0;0.0;0.0;0.0;0.0;0.0;0.0,7.621289842063561e-05;0.0;0.0;0.0;7.621289842063561e-05;0.0;0.0;0.0;7.621289842063561e-05,3.999999975690116e-08;0.0;0.0;0.0;3.999999975690116e-08;0.0;0.0;0.0;3.999999975690116e-08
197,560000000,197.56,imu_link,-0.009713348770996453,0.002054432480686144,0.001085676455766747,-0.0002445650715953493,-0.00027559378421323333,9.800304686896684,-4.615570794880763e-10,5.330484785076849e-08,-4.9891055711882045e-08,0.9999999999999973,0.0;0.0;0.0;0.0;0.0;0.0;0.0;0.0;0.0,7.621289842063561e-05;0.0;0.0;0.0;7.621289842063561e-05;0.0;0.0;0.0;7.621289842063561e-05,3.999999975690116e-08;0.0;0.0;0.0;3.999999975690116e-08;0.0;0.0;0.0;3.999999975690116e-08
197,580000000,197.58,imu_link,-0.013394568099326695,-0.004471389274115006,-0.013747465288867796,0.00024773575214535616,-8.362737446842743e-05,9.79960833237735,-4.6155707955597883e-10,5.3304847850343795e-08,-4.9891055711895115e-08,0.9999999999999973,0.0;0.0;0.0;0.0;0.0;0.0;0.0;0.0;0.0,7.621289842063561e-05;0.0;0.0;0.0;7.621289842063561e-05;0.0;0.0;0.0;7.621289842063561e-05,3.999999975690116e-08;0.0;0.0;0.0;3.999999975690116e-08;0.0;0.0;0.0;3.999999975690116e-08
197,600000000,197.6,imu_link,-0.008884895769350497,0.0008943658517448491,0.01558410409462411,2.6089457162609445e-06,-0.00027705245208794116,9.800245571358358,-4.6155707938302586e-10,5.330484785045845e-08,-4.9891055711909726e-08,0.9999999999999973,0.0;0.0;0.0;0.0;0.0;0.0;0.0;0.0;0.0,7.621289842063561e-05;0.0;0.0;0.0;7.621289842063561e-05;0.0;0.0;0.0;7.621289842063561e-05,3.999999975690116e-08;0.0;0.0;0.0;3.999999975690116e-08;0.0;0.0;0.0;3.999999975690116e-08
197,620000000,197.62,imu_link,0.005794393068785381,-0.0003282358763741019,0.0019520654508719522,0.000340599979101174,-0.00013561773891533868,9.800196006338693,-4.6155707934580997e-10,5.3304847850745156e-08,-4.9891055711926653e-08,0.9999999999999973,0.0;0.0;0.0;0.0;0.0;0.0;0.0;0.0;0.0,7.621289842063561e-05;0.0;0.0;0.0;7.621289842063561e-05;0.0;0.0;0.0;7.621289842063561e-05,3.999999975690116e-08;0.0;0.0;0.0;3.999999975690116e-08;0.0;0.0;0.0;3.999999975690116e-08
197,640000000,197.64,imu_link,0.00724857392270236,0.005861530881652453,-0.010551818701080117,0.00024374016045736448,-0.00013519215787075853,9.800044971799805,-4.6155707957102613e-10,5.330484785032006e-08,-4.98910557119416e-08,0.9999999999999973,0.0;0.0;0.0;0.0;0.0;0.0;0.0;0.0;0.0,7.621289842063561e-05;0.0;0.0;0.0;7.621289842063561e-05;0.0;0.0;0.0;7.621289842063561e-05,3.999999975690116e-08;0.0;0.0;0.0;3.999999975690116e-08;0.0;0.0;0.0;3.999999975690116e-08
197,660000000,197.66,imu_link,-0.016077333395755417,0.006835965491569421,0.004584619617563571,0.00015297079278911506,5.735810498545474e-06,9.800203844658423,-4.615570795530594e-10,5.330484785042932e-08,-4.9891055711957974e-08,0.9999999999999973,0.0;0.0;0.0;0.0;0.0;0.0;0.0;0.0;0.0,7.621289842063561e-05;0.0;0.0;0.0;7.621289842063561e-05;0.0;0.0;0.0;7.621289842063561e-05,3.999999975690116e-08;0.0;0.0;0.0;3.999999975690116e-08;0.0;0.0;0.0;3.999999975690116e-08
197,680000000,197.68,imu_link,-0.013009067462520443,-0.012968151521559614,-0.00676579248958008,0.0004898938716410414,4.978809265825072e-05,9.800126282152705,-4.6155707949637835e-10,5.3304847850714094e-08,-4.989105571197414e-08,0.9999999999999973,0.0;0.0;0.0;0.0;0.0;0.0;0.0;0.0;0.0,7.621289842063561e-05;0.0;0.0;0.0;7.621289842063561e-05;0.0;0.0;0.0;7.621289842063561e-05,3.999999975690116e-08;0.0;0.0;0.0;3.999999975690116e-08;0.0;0.0;0.0;3.999999975690116e-08
197,700000000,197.7,imu_link,-0.0033329672992270707,0.007481425511470844,-0.011035798512584323,0.00019022614087438593,0.00041467295071687685,9.799930369779032,-4.615570794862606e-10,5.330484785070213e-08,-4.98910557119898e-08,0.9999999999999973,0.0;0.0;0.0;0.0;0.0;0.0;0.0;0.0;0.0,7.621289842063561e-05;0.0;0.0;0.0;7.621289842063561e-05;0.0;0.0;0.0;7.621289842063561e-05,3.999999975690116e-08;0.0;0.0;0.0;3.999999975690116e-08;0.0;0.0;0.0;3.999999975690116e-08
197,720000000,197.72,imu_link,-0.0026529522714369485,0.003994542201565285,-0.0029038689328504284,-9.79391949142619e-05,-7.589809620419737e-05,9.799822858130899,-4.6155707945123104e-10,5.3304847850348486e-08,-4.989105571200464e-08,0.9999999999999973,0.0;0.0;0.0;0.0;0.0;0.0;0.0;0.0;0.0,7.621289842063561e-05;0.0;0.0;0.0;7.621289842063561e-05;0.0;0.0;0.0;7.621289842063561e-05,3.999999975690116e-08;0.0;0.0;0.0;3.999999975690116e-08;0.0;0.0;0.0;3.999999975690116e-08
197,740000000,197.74,imu_link,-0.0005280379391252139,-0.012155297179031391,-0.0003266184809770854,0.00023472453110349382,3.434038591808648e-05,9.800337288064153,-4.6155707942608806e-10,5.3304847850450514e-08,-4.989105571202141e-08,0.9999999999999973,0.0;0.0;0.0;0.0;0.0;0.0;0.0;0.0;0.0,7.621289842063561e-05;0.0;0.0;0.0;7.621289842063561e-05;0.0;0.0;0.0;7.621289842063561e-05,3.999999975690116e-08;0.0;0.0;0.0;3.999999975690116e-08;0.0;0.0;0.0;3.999999975690116e-08
197,760000000,197.76,imu_link,-0.013075801276198644,-0.0011049988129150264,0.011900677304346463,0.00018075403591241072,-4.626751228055734e-05,9.799603800670823,-4.615570795118518e-10,5.330484785073391e-08,-4.989105571203745e-08,0.9999999999999973,0.0;0.0;0.0;0.0;0.0;0.0;0.0;0.0;0.0,7.621289842063561e-05;0.0;0.0;0.0;7.621289842063561e-05;0.0;0.0;0.0;7.621289842063561e-05,3.999999975690116e-08;0.0;0.0;0.0;3.999999975690116e-08;0.0;0.0;0.0;3.999999975690116e-08
197,780000000,197.78,imu_link,-0.006985035256913473,0.005966647338928002,-0.009170007605878085,4.4309499612143674e-05,0.00025628170282050337,9.800179051285326,-4.615570794929848e-10,5.330484785037098e-08,-4.989105571205395e-08,0.9999999999999973,0.0;0.0;0.0;0.0;0.0;0.0;0.0;0.0;0.0,7.621289842063561e-05;0.0;0.0;0.0;7.621289842063561e-05;0.0;0.0;0.0;7.621289842063561e-05,3.999999975690116e-08;0.0;0.0;0.0;3.999999975690116e-08;0.0;0.0;0.0;3.999999975690116e-08
197,800000000,197.8,imu_link,0.006180401473173021,-0.003026964149162593,-0.006086497818926338,0.0002377864291795286,0.0002779870859478719,9.800108665522702,-4.615570795974679e-10,5.3304847850471736e-08,-4.989105571206787e-08,0.9999999999999973,0.0;0.0;0.0;0.0;0.0;0.0;0.0;0.0;0.0,7.621289842063561e-05;0.0;0.0;0.0;7.621289842063561e-05;0.0;0.0;0.0;7.621289842063561e-05,3.999999975690116e-08;0.0;0.0;0.0;3.999999975690116e-08;0.0;0.0;0.0;3.999999975690116e-08
197,820000000,197.82,imu_link,-0.0018553279474184086,-0.009437326286272741,-0.0032556352556853824,0.00016893585688464177,0.0003951827704676015,9.799968022658891,-4.6155707942897006e-10,5.330484785047483e-08,-4.9891055712082646e-08,0.9999999999999973,0.0;0.0;0.0;0.0;0.0;0.0;0.0;0.0;0.0,7.621289842063561e-05;0.0;0.0;0.0;7.621289842063561e-05;0.0;0.0;0.0;7.621289842063561e-05,3.999999975690116e-08;0.0;0.0;0.0;3.999999975690116e-08;0.0;0.0;0.0;3.999999975690116e-08
197,840000000,197.84,imu_link,0.0004462079570558942,0.012492625392799602,0.008741778628845905,-4.698275995894475e-06,5.813506326403496e-05,9.800373326101882,-4.6155707937600103e-10,5.330484785076809e-08,-4.989105571209876e-08,0.9999999999999973,0.0;0.0;0.0;0.0;0.0;0.0;0.0;0.0;0.0,7.621289842063561e-05;0.0;0.0;0.0;7.621289842063561e-05;0.0;0.0;0.0;7.621289842063561e-05,3.999999975690116e-08;0.0;0.0;0.0;3.999999975690116e-08;0.0;0.0;0.0;3.999999975690116e-08
197,860000000,197.86,imu_link,0.014272198378573785,0.003380273152910641,-0.0006184732813568515,-5.061704936480251e-05,0.00022970074301669662,9.799987102650869,-4.6155707960548647e-10,5.330484785046707e-08,-4.989105571211234e-08,0.9999999999999973,0.0;0.0;0.0;0.0;0.0;0.0;0.0;0.0;0.0,7.621289842063561e-05;0.0;0.0;0.0;7.621289842063561e-05;0.0;0.0;0.0;7.621289842063561e-05,3.999999975690116e-08;0.0;0.0;0.0;3.999999975690116e-08;0.0;0.0;0.0;3.999999975690116e-08
197,880000000,197.88,imu_link,0.0023604566722254697,8.372265256255248e-05,-0.0022036299633238676,-0.0002166678421584768,0.00037588525563200673,9.800502522048847,-4.6155707942863665e-10,5.330484785056926e-08,-4.9891055712129524e-08,0.9999999999999973,0.0;0.0;0.0;0.0;0.0;0.0;0.0;0.0;0.0,7.621289842063561e-05;0.0;0.0;0.0;7.621289842063561e-05;0.0;0.0;0.0;7.621289842063561e-05,3.999999975690116e-08;0.0;0.0;0.0;3.999999975690116e-08;0.0;0.0;0.0;3.999999975690116e-08
197,900000000,197.9,imu_link,0.01263980302448355,-0.0017302993775243226,0.0073642472774417,0.00018667922166381857,1.950866115362358e-05,9.799999668007555,-4.6155707953061303e-10,5.33048478506724e-08,-4.9891055712145426e-08,0.9999999999999973,0.0;0.0;0.0;0.0;0.0;0.0;0.0;0.0;0.0,7.621289842063561e-05;0.0;0.0;0.0;7.621289842063561e-05;0.0;0.0;0.0;7.621289842063561e-05,3.999999975690116e-08;0.0;0.0;0.0;3.999999975690116e-08;0.0;0.0;0.0;3.999999975690116e-08
197,920000000,197.92,imu_link,0.018847559188428887,-0.012727235124461358,0.0005418580154441746,0.00041715665575849765,-8.229178476816299e-06,9.800028625916287,-4.6155707971190905e-10,5.330484785090398e-08,-4.9891055712161526e-08,0.9999999999999973,0.0;0.0;0.0;0.0;0.0;0.0;0.0;0.0;0.0,7.621289842063561e-05;0.0;0.0;0.0;7.621289842063561e-05;0.0;0.0;0.0;7.621289842063561e-05,3.999999975690116e-08;0.0;0.0;0.0;3.999999975690116e-08;0.0;0.0;0.0;3.999999975690116e-08
197,940000000,197.94,imu_link,-0.013395601774747419,-0.005989915257989113,-0.006380815968947882,0.0006851318910522217,0.0003411778701106387,9.80024688042633,-4.6155707944185495e-10,5.330484785039496e-08,-4.98910557121781e-08,0.9999999999999973,0.0;0.0;0.0;0.0;0.0;0.0;0.0;0.0;0.0,7.621289842063561e-05;0.0;0.0;0.0;7.621289842063561e-05;0.0;0.0;0.0;7.621289842063561e-05,3.999999975690116e-08;0.0;0.0;0.0;3.999999975690116e-08;0.0;0.0;0.0;3.999999975690116e-08
197,960000000,197.96,imu_link,-0.010816098196403673,-0.005380990584211354,0.008481131877952984,0.0001280572245704879,0.0004185016919371799,9.800018631775098,-4.615570795137455e-10,5.3304847850556704e-08,-4.989105571219129e-08,0.9999999999999973,0.0;0.0;0.0;0.0;0.0;0.0;0.0;0.0;0.0,7.621289842063561e-05;0.0;0.0;0.0;7.621289842063561e-05;0.0;0.0;0.0;7.621289842063561e-05,3.999999975690116e-08;0.0;0.0;0.0;3.999999975690116e-08;0.0;0.0;0.0;3.999999975690116e-08
197,980000000,197.98,imu_link,-0.01239526014239587,-0.0008277105559648676,-0.007256486036467114,0.00036486311222218775,0.0002801063745249708,9.800400136366685,-4.615570796892062e-10,5.330484785089677e-08,-4.989105571220621e-08,0.9999999999999973,0.0;0.0;0.0;0.0;0.0;0.0;0.0;0.0;0.0,7.621289842063561e-05;0.0;0.0;0.0;7.621289842063561e-05;0.0;0.0;0.0;7.621289842063561e-05,3.999999975690116e-08;0.0;0.0;0.0;3.999999975690116e-08;0.0;0.0;0.0;3.999999975690116e-08
198,0,198.0,imu_link,-0.002862756732071852,-0.0007955355915885449,-0.004173586677859292,0.0002568018794901604,0.00021593635920699912,9.800271105883152,-4.6155707955469045e-10,5.330484785036391e-08,-4.989105571222069e-08,0.9999999999999973,0.0;0.0;0.0;0.0;0.0;0.0;0.0;0.0;0.0,7.621289842063561e-05;0.0;0.0;0.0;7.621289842063561e-05;0.0;0.0;0.0;7.621289842063561e-05,3.999999975690116e-08;0.0;0.0;0.0;3.999999975690116e-08;0.0;0.0;0.0;3.999999975690116e-08
198,20000000,198.02,imu_link,0.0005553661920362899,-0.010838641167932875,0.002044685740396295,0.00016413785454073355,9.84361656332344e-05,9.800196892379121,-4.615570793911283e-10,5.3304847850476455e-08,-4.989105571223632e-08,0.9999999999999973,0.0;0.0;0.0;0.0;0.0;0.0;0.0;0.0;0.0,7.621289842063561e-05;0.0;0.0;0.0;7.621289842063561e-05;0.0;0.0;0.0;7.621289842063561e-05,3.999999975690116e-08;0.0;0.0;0.0;3.999999975690116e-08;0.0;0.0;0.0;3.999999975690116e-08
198,40000000,198.04,imu_link,-0.0008171969041156511,-0.0018214647754950907,0.002734996433812993,-0.0001021560839540091,8.328153528628024e-05,9.800290732267374,-4.615570797098747e-10,5.330484785080942e-08,-4.989105571225182e-08,0.9999999999999973,0.0;0.0;0.0;0.0;0.0;0.0;0.0;0.0;0.0,7.621289842063561e-05;0.0;0.0;0.0;7.621289842063561e-05;0.0;0.0;0.0;7.621289842063561e-05,3.999999975690116e-08;0.0;0.0;0.0;3.999999975690116e-08;0.0;0.0;0.0;3.999999975690116e-08
198,60000000,198.06,imu_link,0.011832898258071201,-7.068502978947424e-05,-0.017867778336797296,0.00010081673183990747,0.00030423890819891085,9.800187236146403,-4.6155707944770787e-10,5.330484785087812e-08,-4.989105571226763e-08,0.9999999999999973,0.0;0.0;0.0;0.0;0.0;0.0;0.0;0.0;0.0,7.621289842063561e-05;0.0;0.0;0.0;7.621289842063561e-05;0.0;0.0;0.0;7.621289842063561e-05,3.999999975690116e-08;0.0;0.0;0.0;3.999999975690116e-08;0.0;0.0;0.0;3.999999975690116e-08
198,80000000,198.08,imu_link,0.01475631037120791,-0.0070946458680564645,-0.004258618735078572,-3.047817591684892e-05,0.00027166760148301613,9.799930537615827,-4.615570793946078e-10,5.330484785041326e-08,-4.9891055712284505e-08,0.9999999999999973,0.0;0.0;0.0;0.0;0.0;0.0;0.0;0.0;0.0,7.621289842063561e-05;0.0;0.0;0.0;7.621289842063561e-05;0.0;0.0;0.0;7.621289842063561e-05,3.999999975690116e-08;0.0;0.0;0.0;3.999999975690116e-08;0.0;0.0;0.0;3.999999975690116e-08
198,100000000,198.1,imu_link,-0.014123481359995242,-0.028589309590163287,0.009654145760273233,-0.00015659516856117607,0.000132695047037562,9.799684668735246,-4.6155707946672103e-10,5.3304847850587985e-08,-4.989105571230003e-08,0.9999999999999973,0.0;0.0;0.0;0.0;0.0;0.0;0.0;0.0;0.0,7.621289842063561e-05;0.0;0.0;0.0;7.621289842063561e-05;0.0;0.0;0.0;7.621289842063561e-05,3.999999975690116e-08;0.0;0.0;0.0;3.999999975690116e-08;0.0;0.0;0.0;3.999999975690116e-08
198,120000000,198.12,imu_link,0.0065480161713672436,-0.006086755606913133,-0.015861920988606833,-7.637338918564108e-05,-8.957623340420976e-06,9.80043215711762,-4.6155707952767044e-10,5.3304847850284866e-08,-4.9891055712314164e-08,0.9999999999999973,0.0;0.0;0.0;0.0;0.0;0.0;0.0;0.0;0.0,7.621289842063561e-05;0.0;0.0;0.0;7.621289842063561e-05;0.0;0.0;0.0;7.621289842063561e-05,3.999999975690116e-08;0.0;0.0;0.0;3.999999975690116e-08;0.0;0.0;0.0;3.999999975690116e-08
198,140000000,198.14,imu_link,0.0053633058227050435,-0.00312236013317229,-0.011200168551651733,0.00033783300306145745,0.0003420769147195516,9.800266310735196,-4.615570796036792e-10,5.3304847850449985e-08,-4.989105571233014e-08,0.9999999999999973,0.0;0.0;0.0;0.0;0.0;0.0;0.0;0.0;0.0,7.621289842063561e-05;0.0;0.0;0.0;7.621289842063561e-05;0.0;0.0;0.0;7.621289842063561e-05,3.999999975690116e-08;0.0;0.0;0.0;3.999999975690116e-08;0.0;0.0;0.0;3.999999975690116e-08
198,160000000,198.16,imu_link,-0.003691901640703717,0.020334094692301644,-0.0021029524055591344,-6.041008228018309e-05,2.1300543520983255e-05,9.799803960538814,-4.6155707943928407e-10,5.330484785056576e-08,-4.989105571234569e-08,0.9999999999999973,0.0;0.0;0.0;0.0;0.0;0.0;0.0;0.0;0.0,7.621289842063561e-05;0.0;0.0;0.0;7.621289842063561e-05;0.0;0.0;0.0;7.621289842063561e-05,3.999999975690116e-08;0.0;0.0;0.0;3.999999975690116e-08;0.0;0.0;0.0;3.999999975690116e-08
198,180000000,198.18,imu_link,0.000999650209258919,0.0045539965787413745,-0.004439259586147581,-5.688630642683024e-05,5.432866604091766e-05,9.800257484595896,-4.6155707955627543e-10,5.330484785067253e-08,-4.98910557123604e-08,0.9999999999999973,0.0;0.0;0.0;0.0;0.0;0.0;0.0;0.0;0.0,7.621289842063561e-05;0.0;0.0;0.0;7.621289842063561e-05;0.0;0.0;0.0;7.621289842063561e-05,3.999999975690116e-08;0.0;0.0;0.0;3.999999975690116e-08;0.0;0.0;0.0;3.999999975690116e-08
198,200000000,198.2,imu_link,-0.0004445038298577114,-0.005324490339580401,-0.00872002792699398,0.00023031045670396822,-0.0001366206513726818,9.799986144956716,-4.615570795448585e-10,5.3304847850320534e-08,-4.989105571237553e-08,0.9999999999999973,0.0;0.0;0.0;0.0;0.0;0.0;0.0;0.0;0.0,7.621289842063561e-05;0.0;0.0;0.0;7.621289842063561e-05;0.0;0.0;0.0;7.621289842063561e-05,3.999999975690116e-08;0.0;0.0;0.0;3.999999975690116e-08;0.0;0.0;0.0;3.999999975690116e-08
198,220000000,198.22,imu_link,-0.002728382013899304,0.004472210754333161,0.008089674131074023,0.00027061382015372483,0.0001320375947606058,9.800064488707987,-4.6155707950274624e-10,5.3304847850437623e-08,-4.989105571239041e-08,0.9999999999999973,0.0;0.0;0.0;0.0;0.0;0.0;0.0;0.0;0.0,7.621289842063561e-05;0.0;0.0;0.0;7.621289842063561e-05;0.0;0.0;0.0;7.621289842063561e-05,3.999999975690116e-08;0.0;0.0;0.0;3.999999975690116e-08;0.0;0.0;0.0;3.999999975690116e-08
198,240000000,198.24,imu_link,0.005806904598135769,-0.0007087959882185241,0.004879902413352316,0.0002681046424087033,3.64073168867952e-05,9.80021090435092,-4.615570795703401e-10,5.330484785060515e-08,-4.989105571240655e-08,0.9999999999999973,0.0;0.0;0.0;0.0;0.0;0.0;0.0;0.0;0.0,7.621289842063561e-05;0.0;0.0;0.0;7.621289842063561e-05;0.0;0.0;0.0;7.621289842063561e-05,3.999999975690116e-08;0.0;0.0;0.0;3.999999975690116e-08;0.0;0.0;0.0;3.999999975690116e-08
198,260000000,198.26,imu_link,0.006852188301291965,-0.005769943258787793,0.011742503277486785,0.00024439788767327927,0.0002123349565851776,9.800173913001471,-4.6155707952029886e-10,5.330484785078141e-08,-4.989105571242312e-08,0.9999999999999973,0.0;0.0;0.0;0.0;0.0;0.0;0.0;0.0;0.0,7.621289842063561e-05;0.0;0.0;0.0;7.621289842063561e-05;0.0;0.0;0.0;7.621289842063561e-05,3.999999975690116e-08;0.0;0.0;0.0;3.999999975690116e-08;0.0;0.0;0.0;3.999999975690116e-08
198,280000000,198.28,imu_link,0.007709411127154272,0.011425080608291047,-0.012684338746624883,-4.960178714319828e-05,8.63904157226503e-05,9.800187208173545,-4.6155707960919436e-10,5.33048478504779e-08,-4.9891055712437884e-08,0.9999999999999973,0.0;0.0;0.0;0.0;0.0;0.0;0.0;0.0;0.0,7.621289842063561e-05;0.0;0.0;0.0;7.621289842063561e-05;0.0;0.0;0.0;7.621289842063561e-05,3.999999975690116e-08;0.0;0.0;0.0;3.999999975690116e-08;0.0;0.0;0.0;3.999999975690116e-08
198,300000000,198.3,imu_link,0.0026289953042054645,-0.005342770319779396,-0.0029938077664107446,0.0004206538705902812,0.0002244425790731161,9.800083949028416,-4.615570794388162e-10,5.330484785058278e-08,-4.989105571245448e-08,0.9999999999999973,0.0;0.0;0.0;0.0;0.0;0.0;0.0;0.0;0.0,7.621289842063561e-05;0.0;0.0;0.0;7.621289842063561e-05;0.0;0.0;0.0;7.621289842063561e-05,3.999999975690116e-08;0.0;0.0;0.0;3.999999975690116e-08;0.0;0.0;0.0;3.999999975690116e-08
198,320000000,198.32,imu_link,-0.003772208898883167,0.0022625441520707054,0.006620110609186894,8.549009954603382e-05,0.00024810759221450683,9.800138561829781,-4.6155707955200345e-10,5.330484785067929e-08,-4.989105571247137e-08,0.9999999999999973,0.0;0.0;0.0;0.0;0.0;0.0;0.0;0.0;0.0,7.621289842063561e-05;0.0;0.0;0.0;7.621289842063561e-05;0.0;0.0;0.0;7.621289842063561e-05,3.999999975690116e-08;0.0;0.0;0.0;3.999999975690116e-08;0.0;0.0;0.0;3.999999975690116e-08
198,340000000,198.34,imu_link,-0.009180581634023839,0.004665359066107266,-0.00044175515945602136,-0.00013966156052002738,9.036893244258224e-05,9.800212989338318,-4.6155707941138616e-10,5.3304847850333544e-08,-4.9891055712488594e-08,0.9999999999999973,0.0;0.0;0.0;0.0;0.0;0.0;0.0;0.0;0.0,7.621289842063561e-05;0.0;0.0;0.0;7.621289842063561e-05;0.0;0.0;0.0;7.621289842063561e-05,3.999999975690116e-08;0.0;0.0;0.0;3.999999975690116e-08;0.0;0.0;0.0;3.999999975690116e-08
198,360000000,198.36,imu_link,0.004923896957388603,-0.0006877580798927713,-0.016976558307978347,0.000264798949364251,0.00014161695246044006,9.80007747738828,-4.615570796195835e-10,5.330484785049634e-08,-4.989105571250356e-08,0.9999999999999973,0.0;0.0;0.0;0.0;0.0;0.0;0.0;0.0;0.0,7.621289842063561e-05;0.0;0.0;0.0;7.621289842063561e-05;0.0;0.0;0.0;7.621289842063561e-05,3.999999975690116e-08;0.0;0.0;0.0;3.999999975690116e-08;0.0;0.0;0.0;3.999999975690116e-08
198,380000000,198.38,imu_link,-0.002050648013108921,0.010022979601699117,0.0014432170074288302,-0.00026076159761895105,0.00014699977940531343,9.800045738669429,-4.615570796101138e-10,5.33048478505916e-08,-4.989105571252123e-08,0.9999999999999973,0.0;0.0;0.0;0.0;0.0;0.0;0.0;0.0;0.0,7.621289842063561e-05;0.0;0.0;0.0;7.621289842063561e-05;0.0;0.0;0.0;7.621289842063561e-05,3.999999975690116e-08;0.0;0.0;0.0;3.999999975690116e-08;0.0;0.0;0.0;3.999999975690116e-08
198,400000000,198.4,imu_link,-0.0016377967643571895,0.0052494225989225055,-0.010712159758690162,0.00022865799533984836,2.550005958588791e-05,9.800189297475985,-4.615570796887366e-10,5.330484785088293e-08,-4.9891055712536385e-08,0.9999999999999973,0.0;0.0;0.0;0.0;0.0;0.0;0.0;0.0;0.0,7.621289842063561e-05;0.0;0.0;0.0;7.621289842063561e-05;0.0;0.0;0.0;7.621289842063561e-05,3.999999975690116e-08;0.0;0.0;0.0;3.999999975690116e-08;0.0;0.0;0.0;3.999999975690116e-08
198,420000000,198.42,imu_link,-0.0121841183769956,0.00046088852896111515,6.342737655145514e-05,0.0003688127548778447,0.00038694867905415353,9.80034562085637,-4.6155707946571383e-10,5.330484785029444e-08,-4.989105571255259e-08,0.9999999999999973,0.0;0.0;0.0;0.0;0.0;0.0;0.0;0.0;0.0,7.621289842063561e-05;0.0;0.0;0.0;7.621289842063561e-05;0.0;0.0;0.0;7.621289842063561e-05,3.999999975690116e-08;0.0;0.0;0.0;3.999999975690116e-08;0.0;0.0;0.0;3.999999975690116e-08
198,440000000,198.44,imu_link,-0.00795170517268808,-0.003307477509448097,-0.001648978688029909,0.00018643177007049677,0.0005336555801162331,9.800025729713584,-4.6155707941205804e-10,5.330484785058793e-08,-4.989105571256922e-08,0.9999999999999973,0.0;0.0;0.0;0.0;0.0;0.0;0.0;0.0;0.0,7.621289842063561e-05;0.0;0.0;0.0;7.621289842063561e-05;0.0;0.0;0.0;7.621289842063561e-05,3.999999975690116e-08;0.0;0.0;0.0;3.999999975690116e-08;0.0;0.0;0.0;3.999999975690116e-08
198,460000000,198.46,imu_link,-0.004499826704697116,0.00031496540334382563,0.0020256938845612986,0.000235047695870197,0.0001818723342420981,9.800154258420326,-4.6155707953497067e-10,5.3304847850686565e-08,-4.989105571258373e-08,0.9999999999999973,0.0;0.0;0.0;0.0;0.0;0.0;0.0;0.0;0.0,7.621289842063561e-05;0.0;0.0;0.0;7.621289842063561e-05;0.0;0.0;0.0;7.621289842063561e-05,3.999999975690116e-08;0.0;0.0;0.0;3.999999975690116e-08;0.0;0.0;0.0;3.999999975690116e-08
198,480000000,198.48,imu_link,-0.0004979226277056854,0.001897864240910873,-0.0042376644320587025,0.0002841749322964362,0.0002401325502016723,9.800123147781912,-4.615570797030941e-10,5.3304847850905e-08,-4.9891055712601275e-08,0.9999999999999973,0.0;0.0;0.0;0.0;0.0;0.0;0.0;0.0;0.0,7.621289842063561e-05;0.0;0.0;0.0;7.621289842063561e-05;0.0;0.0;0.0;7.621289842063561e-05,3.999999975690116e-08;0.0;0.0;0.0;3.999999975690116e-08;0.0;0.0;0.0;3.999999975690116e-08
198,500000000,198.5,imu_link,-0.006610294107709343,-0.0032150242950585053,-0.005474324790465592,3.33323583344376e-06,0.00017565401861709308,9.80001614781197,-4.6155707944993846e-10,5.330484785038733e-08,-4.9891055712616416e-08,0.9999999999999973,0.0;0.0;0.0;0.0;0.0;0.0;0.0;0.0;0.0,7.621289842063561e-05;0.0;0.0;0.0;7.621289842063561e-05;0.0;0.0;0.0;7.621289842063561e-05,3.999999975690116e-08;0.0;0.0;0.0;3.999999975690116e-08;0.0;0.0;0.0;3.999999975690116e-08
198,520000000,198.52,imu_link,-0.004197255335030236,0.0036118192773172014,0.006535052479544509,-9.146008291955137e-05,-0.00016213974945340016,9.799841646979033,-4.615570795364628e-10,5.3304847850544376e-08,-4.9891055712632285e-08,0.9999999999999973,0.0;0.0;0.0;0.0;0.0;0.0;0.0;0.0;0.0,7.621289842063561e-05;0.0;0.0;0.0;7.621289842063561e-05;0.0;0.0;0.0;7.621289842063561e-05,3.999999975690116e-08;0.0;0.0;0.0;3.999999975690116e-08;0.0;0.0;0.0;3.999999975690116e-08
198,540000000,198.54,imu_link,-0.0011022527472623479,-0.002721153204129825,0.005019332557842097,8.380643631753212e-05,0.00016023382148117637,9.800214294173239,-4.615570794738255e-10,5.3304847850838515e-08,-4.9891055712650106e-08,0.9999999999999973,0.0;0.0;0.0;0.0;0.0;0.0;0.0;0.0;0.0,7.621289842063561e-05;0.0;0.0;0.0;7.621289842063561e-05;0.0;0.0;0.0;7.621289842063561e-05,3.999999975690116e-08;0.0;0.0;0.0;3.999999975690116e-08;0.0;0.0;0.0;3.999999975690116e-08
198,560000000,198.56,imu_link,0.0013723312571207998,0.002794446661042416,0.003382444352195546,-7.437150037679306e-05,0.00024053701578530696,9.800234699071504,-4.61557079445404e-10,5.330484785047619e-08,-4.989105571266642e-08,0.9999999999999973,0.0;0.0;0.0;0.0;0.0;0.0;0.0;0.0;0.0,7.621289842063561e-05;0.0;0.0;0.0;7.621289842063561e-05;0.0;0.0;0.0;7.621289842063561e-05,3.999999975690116e-08;0.0;0.0;0.0;3.999999975690116e-08;0.0;0.0;0.0;3.999999975690116e-08
198,580000000,198.58,imu_link,0.005109216942113711,0.007862461884220687,0.009032918903461641,-5.97651378934036e-05,-1.382741329022324e-05,9.79998016054371,-4.6155707941284696e-10,5.330484785058879e-08,-4.989105571268168e-08,0.9999999999999973,0.0;0.0;0.0;0.0;0.0;0.0;0.0;0.0;0.0,7.621289842063561e-05;0.0;0.0;0.0;7.621289842063561e-05;0.0;0.0;0.0;7.621289842063561e-05,3.999999975690116e-08;0.0;0.0;0.0;3.999999975690116e-08;0.0;0.0;0.0;3.999999975690116e-08
198,600000000,198.6,imu_link,-0.010566414343963453,0.008191219595263227,0.009203952445504617,0.00011284106624864192,0.00016592102143796281,9.800252522493002,-4.6155707938076285e-10,5.330484785068721e-08,-4.989105571269792e-08,0.9999999999999973,0.0;0.0;0.0;0.0;0.0;0.0;0.0;0.0;0.0,7.621289842063561e-05;0.0;0.0;0.0;7.621289842063561e-05;0.0;0.0;0.0;7.621289842063561e-05,3.999999975690116e-08;0.0;0.0;0.0;3.999999975690116e-08;0.0;0.0;0.0;3.999999975690116e-08
198,620000000,198.62,imu_link,-0.010340163449702183,0.003224999515471088,-0.016997132323781073,5.0140872577184286e-05,4.200889175401068e-06,9.799965851830386,-4.615570795808689e-10,5.3304847850376716e-08,-4.989105571271408e-08,0.9999999999999973,0.0;0.0;0.0;0.0;0.0;0.0;0.0;0.0;0.0,7.621289842063561e-05;0.0;0.0;0.0;7.621289842063561e-05;0.0;0.0;0.0;7.621289842063561e-05,3.999999975690116e-08;0.0;0.0;0.0;3.999999975690116e-08;0.0;0.0;0.0;3.999999975690116e-08
198,640000000,198.64,imu_link,-0.0025965857600651968,0.008430333736175702,-0.013004769798554573,1.770939314135583e-05,7.497458874806842e-05,9.800059496611407,-4.6155707940040875e-10,5.330484785047833e-08,-4.989105571273143e-08,0.9999999999999973,0.0;0.0;0.0;0.0;0.0;0.0;0.0;0.0;0.0,7.621289842063561e-05;0.0;0.0;0.0;7.621289842063561e-05;0.0;0.0;0.0;7.621289842063561e-05,3.999999975690116e-08;0.0;0.0;0.0;3.999999975690116e-08;0.0;0.0;0.0;3.999999975690116e-08
198,660000000,198.66,imu_link,-0.01475319659849767,-0.0035019233148643773,0.007770894522614989,0.00019309425222826775,0.00027809307881033536,9.80010006220903,-4.615570793708133e-10,5.3304847850584326e-08,-4.9891055712747236e-08,0.9999999999999973,0.0;0.0;0.0;0.0;0.0;0.0;0.0;0.0;0.0,7.621289842063561e-05;0.0;0.0;0.0;7.621289842063561e-05;0.0;0.0;0.0;7.621289842063561e-05,3.999999975690116e-08;0.0;0.0;0.0;3.999999975690116e-08;0.0;0.0;0.0;3.999999975690116e-08
198,680000000,198.68,imu_link,0.00907163072837809,5.003974662727707e-05,0.011928946041368951,-8.86436768236618e-05,1.3892804217046129e-05,9.799886212164077,-4.615570795768005e-10,5.330484785027736e-08,-4.989105571276367e-08,0.9999999999999973,0.0;0.0;0.0;0.0;0.0;0.0;0.0;0.0;0.0,7.621289842063561e-05;0.0;0.0;0.0;7.621289842063561e-05;0.0;0.0;0.0;7.621289842063561e-05,3.999999975690116e-08;0.0;0.0;0.0;3.999999975690116e-08;0.0;0.0;0.0;3.999999975690116e-08
198,700000000,198.7,imu_link,0.0025460831077634524,-0.0005779896155629398,0.0008069233464770125,-3.314920966239808e-05,6.277553343721941e-05,9.7998467282782,-4.615570795442435e-10,5.330484785038575e-08,-4.9891055712779424e-08,0.9999999999999973,0.0;0.0;0.0;0.0;0.0;0.0;0.0;0.0;0.0,7.621289842063561e-05;0.0;0.0;0.0;7.621289842063561e-05;0.0;0.0;0.0;7.621289842063561e-05,3.999999975690116e-08;0.0;0.0;0.0;3.999999975690116e-08;0.0;0.0;0.0;3.999999975690116e-08
198,720000000,198.72,imu_link,0.0015341213414071986,0.011296145018004538,0.01260556753119859,0.0002848394706840482,4.1007734936085685e-05,9.800423420489562,-4.6155707949026445e-10,5.330484785068092e-08,-4.989105571279615e-08,0.9999999999999973,0.0;0.0;0.0;0.0;0.0;0.0;0.0;0.0;0.0,7.621289842063561e-05;0.0;0.0;0.0;7.621289842063561e-05;0.0;0.0;0.0;7.621289842063561e-05,3.999999975690116e-08;0.0;0.0;0.0;3.999999975690116e-08;0.0;0.0;0.0;3.999999975690116e-08
198,740000000,198.74,imu_link,0.005223138579435671,0.00849276834303417,-0.013041148301794479,0.00013748986461795327,8.743337248161746e-05,9.800214498522694,-4.615570794753577e-10,5.3304847850794244e-08,-4.989105571281303e-08,0.9999999999999973,0.0;0.0;0.0;0.0;0.0;0.0;0.0;0.0;0.0,7.621289842063561e-05;0.0;0.0;0.0;7.621289842063561e-05;0.0;0.0;0.0;7.621289842063561e-05,3.999999975690116e-08;0.0;0.0;0.0;3.999999975690116e-08;0.0;0.0;0.0;3.999999975690116e-08
198,760000000,198.76,imu_link,-0.009830563184592871,0.0022185905541356474,0.011936768700621277,0.0001306607682267073,7.916640043954446e-05,9.800029927554812,-4.6155707959813775e-10,5.3304847850300053e-08,-4.9891055712829955e-08,0.9999999999999973,0.0;0.0;0.0;0.0;0.0;0.0;0.0;0.0;0.0,7.621289842063561e-05;0.0;0.0;0.0;7.621289842063561e-05;0.0;0.0;0.0;7.621289842063561e-05,3.999999975690116e-08;0.0;0.0;0.0;3.999999975690116e-08;0.0;0.0;0.0;3.999999975690116e-08
198,780000000,198.78,imu_link,-0.0019650478805476376,0.019343914823192622,-0.0020663464888232854,-0.0001607152559071713,4.091456852614021e-05,9.799970270601778,-4.6155707939862923e-10,5.330484785047903e-08,-4.989105571284776e-08,0.9999999999999973,0.0;0.0;0.0;0.0;0.0;0.0;0.0;0.0;0.0,7.621289842063561e-05;0.0;0.0;0.0;7.621289842063561e-05;0.0;0.0;0.0;7.621289842063561e-05,3.999999975690116e-08;0.0;0.0;0.0;3.999999975690116e-08;0.0;0.0;0.0;3.999999975690116e-08
198,800000000,198.8,imu_link,-0.00020702229735942827,-0.008387597287478737,0.00910042337810045,0.00042496880217695915,0.0002470598224147699,9.79993913403501,-4.615570794799766e-10,5.330484785051953e-08,-4.989105571286557e-08,0.9999999999999973,0.0;0.0;0.0;0.0;0.0;0.0;0.0;0.0;0.0,7.621289842063561e-05;0.0;0.0;0.0;7.621289842063561e-05;0.0;0.0;0.0;7.621289842063561e-05,3.999999975690116e-08;0.0;0.0;0.0;3.999999975690116e-08;0.0;0.0;0.0;3.999999975690116e-08
198,820000000,198.82,imu_link,-0.004095197401608474,-0.0006898751034039417,-0.004766404006690027,0.0002870518108096066,5.50157492296926e-05,9.799885138187692,-4.6155707953059835e-10,5.330484785087626e-08,-4.98910557128834e-08,0.9999999999999973,0.0;0.0;0.0;0.0;0.0;0.0;0.0;0.0;0.0,7.621289842063561e-05;0.0;0.0;0.0;7.621289842063561e-05;0.0;0.0;0.0;7.621289842063561e-05,3.999999975690116e-08;0.0;0.0;0.0;3.999999975690116e-08;0.0;0.0;0.0;3.999999975690116e-08
198,840000000,198.84,imu_link,-0.0054609114637282075,-0.007704842025579012,0.009204610701308874,-0.00014256545783574115,-0.00023479536165799938,9.800049195348354,-4.615570795013627e-10,5.330484785041666e-08,-4.989105571289965e-08,0.9999999999999973,0.0;0.0;0.0;0.0;0.0;0.0;0.0;0.0;0.0,7.621289842063561e-05;0.0;0.0;0.0;7.621289842063561e-05;0.0;0.0;0.0;7.621289842063561e-05,3.999999975690116e-08;0.0;0.0;0.0;3.999999975690116e-08;0.0;0.0;0.0;3.999999975690116e-08
198,860000000,198.86,imu_link,-0.0038446566787287795,0.009086097005314825,0.007841664584077644,0.0003933133627396213,0.00011321299999827581,9.80029171186831,-4.615570795904864e-10,5.330484785057492e-08,-4.9891055712916286e-08,0.9999999999999973,0.0;0.0;0.0;0.0;0.0;0.0;0.0;0.0;0.0,7.621289842063561e-05;0.0;0.0;0.0;7.621289842063561e-05;0.0;0.0;0.0;7.621289842063561e-05,3.999999975690116e-08;0.0;0.0;0.0;3.999999975690116e-08;0.0;0.0;0.0;3.999999975690116e-08
198,880000000,198.88,imu_link,-0.011817963539617718,-0.018339496714319486,0.008653187483412261,-9.483005146654138e-05,0.00010108691165785193,9.800247559258297,-4.615570795650817e-10,5.33048478506923e-08,-4.9891055712932664e-08,0.9999999999999973,0.0;0.0;0.0;0.0;0.0;0.0;0.0;0.0;0.0,7.621289842063561e-05;0.0;0.0;0.0;7.621289842063561e-05;0.0;0.0;0.0;7.621289842063561e-05,3.999999975690116e-08;0.0;0.0;0.0;3.999999975690116e-08;0.0;0.0;0.0;3.999999975690116e-08
198,900000000,198.9,imu_link,0.0017882327793218688,0.00014411029273210028,-0.0008678221905227347,-0.00011442055075790688,0.00023555640825539034,9.800004429686997,-4.615570793945304e-10,5.330484785034442e-08,-4.9891055712949366e-08,0.9999999999999973,0.0;0.0;0.0;0.0;0.0;0.0;0.0;0.0;0.0,7.621289842063561e-05;0.0;0.0;0.0;7.621289842063561e-05;0.0;0.0;0.0;7.621289842063561e-05,3.999999975690116e-08;0.0;0.0;0.0;3.999999975690116e-08;0.0;0.0;0.0;3.999999975690116e-08
198,920000000,198.92,imu_link,-0.008499666489954339,0.004652444933264727,0.00873081474600427,-0.0002319526438500397,0.00011002098936160769,9.800184558735422,-4.615570795094642e-10,5.330484785043311e-08,-4.9891055712966016e-08,0.9999999999999973,0.0;0.0;0.0;0.0;0.0;0.0;0.0;0.0;0.0,7.621289842063561e-05;0.0;0.0;0.0;7.621289842063561e-05;0.0;0.0;0.0;7.621289842063561e-05,3.999999975690116e-08;0.0;0.0;0.0;3.999999975690116e-08;0.0;0.0;0.0;3.999999975690116e-08
198,940000000,198.94,imu_link,0.0071772357144375245,-0.0010720728332456963,0.010940589697577933,2.4484586245174548e-05,0.00017297157937285428,9.800258957420175,-4.615570794373944e-10,5.330484785072986e-08,-4.989105571298558e-08,0.9999999999999973,0.0;0.0;0.0;0.0;0.0;0.0;0.0;0.0;0.0,7.621289842063561e-05;0.0;0.0;0.0;7.621289842063561e-05;0.0;0.0;0.0;7.621289842063561e-05,3.999999975690116e-08;0.0;0.0;0.0;3.999999975690116e-08;0.0;0.0;0.0;3.999999975690116e-08
198,960000000,198.96,imu_link,0.003207798810099061,0.0005278013427582739,-0.0028577269968450563,0.0002348909859848248,0.00013052644501637824,9.800215625570733,-4.615570795110351e-10,5.330484785088836e-08,-4.989105571300457e-08,0.9999999999999973,0.0;0.0;0.0;0.0;0.0;0.0;0.0;0.0;0.0,7.621289842063561e-05;0.0;0.0;0.0;7.621289842063561e-05;0.0;0.0;0.0;7.621289842063561e-05,3.999999975690116e-08;0.0;0.0;0.0;3.999999975690116e-08;0.0;0.0;0.0;3.999999975690116e-08
198,980000000,198.98,imu_link,0.012680117802850416,0.012217353661134283,-0.0022608574397401907,-9.63201471165319e-05,0.0004090529107723229,9.800346381221,-4.615570795098537e-10,5.330484785034936e-08,-4.989105571302122e-08,0.9999999999999973,0.0;0.0;0.0;0.0;0.0;0.0;0.0;0.0;0.0,7.621289842063561e-05;0.0;0.0;0.0;7.621289842063561e-05;0.0;0.0;0.0;7.621289842063561e-05,3.999999975690116e-08;0.0;0.0;0.0;3.999999975690116e-08;0.0;0.0;0.0;3.999999975690116e-08
199,0,199.0,imu_link,-0.001771877778566878,-0.0029629720950314162,-0.0031834116400191012,-6.249056489707758e-05,5.343810440096796e-05,9.800174141813669,-4.615570795557289e-10,5.330484785069385e-08,-4.989105571303913e-08,0.9999999999999973,0.0;0.0;0.0;0.0;0.0;0.0;0.0;0.0;0.0,7.621289842063561e-05;0.0;0.0;0.0;7.621289842063561e-05;0.0;0.0;0.0;7.621289842063561e-05,3.999999975690116e-08;0.0;0.0;0.0;3.999999975690116e-08;0.0;0.0;0.0;3.999999975690116e-08
199,20000000,199.02,imu_link,-0.0024654219945729403,0.006660579645677657,0.00038935490240515436,0.00016507277586111285,-0.00011878023427583698,9.799864346573965,-4.6155707939817583e-10,5.330484785069865e-08,-4.989105571305819e-08,0.9999999999999973,0.0;0.0;0.0;0.0;0.0;0.0;0.0;0.0;0.0,7.621289842063561e-05;0.0;0.0;0.0;7.621289842063561e-05;0.0;0.0;0.0;7.621289842063561e-05,3.999999975690116e-08;0.0;0.0;0.0;3.999999975690116e-08;0.0;0.0;0.0;3.999999975690116e-08
199,40000000,199.04,imu_link,-0.0002624527723174316,-0.003902284929858221,-0.004294952567363552,0.00036586310598748286,0.00018366319166544467,9.800314779743028,-4.615570793859163e-10,5.330484785034421e-08,-4.9891055713075224e-08,0.9999999999999973,0.0;0.0;0.0;0.0;0.0;0.0;0.0;0.0;0.0,7.621289842063561e-05;0.0;0.0;0.0;7.621289842063561e-05;0.0;0.0;0.0;7.621289842063561e-05,3.999999975690116e-08;0.0;0.0;0.0;3.999999975690116e-08;0.0;0.0;0.0;3.999999975690116e-08
199,60000000,199.06,imu_link,0.0011802796659470102,-0.014958302497496967,0.006144301740023517,9.821406281746024e-05,0.0004406949683265285,9.800244115975635,-4.61557079457074e-10,5.3304847850525913e-08,-4.9891055713092455e-08,0.9999999999999973,0.0;0.0;0.0;0.0;0.0;0.0;0.0;0.0;0.0,7.621289842063561e-05;0.0;0.0;0.0;7.621289842063561e-05;0.0;0.0;0.0;7.621289842063561e-05,3.999999975690116e-08;0.0;0.0;0.0;3.999999975690116e-08;0.0;0.0;0.0;3.999999975690116e-08
199,80000000,199.08,imu_link,-0.008086224143449066,-0.01567944947386569,-0.0125746144418758,-5.6688045272310094e-05,7.802417958526345e-05,9.800417838777964,-4.6155707954018826e-10,5.3304847850681046e-08,-4.9891055713110594e-08,0.9999999999999973,0.0;0.0;0.0;0.0;0.0;0.0;0.0;0.0;0.0,7.621289842063561e-05;0.0;0.0;0.0;7.621289842063561e-05;0.0;0.0;0.0;7.621289842063561e-05,3.999999975690116e-08;0.0;0.0;0.0;3.999999975690116e-08;0.0;0.0;0.0;3.999999975690116e-08
199,100000000,199.1,imu_link,-0.001463443318199271,-0.0015943469619870282,-0.013079223530701308,8.540586551691098e-05,0.00043323231747663236,9.800126822781777,-4.615570793633383e-10,5.330484785078379e-08,-4.989105571313022e-08,0.9999999999999973,0.0;0.0;0.0;0.0;0.0;0.0;0.0;0.0;0.0,7.621289842063561e-05;0.0;0.0;0.0;7.621289842063561e-05;0.0;0.0;0.0;7.621289842063561e-05,3.999999975690116e-08;0.0;0.0;0.0;3.999999975690116e-08;0.0;0.0;0.0;3.999999975690116e-08
199,120000000,199.12,imu_link,0.0010948410347322247,-0.012191644453267408,-8.925920990256409e-05,0.0001591486736537088,0.00018519274350777747,9.800433372273558,-4.615570794298832e-10,5.330484785048151e-08,-4.989105571314521e-08,0.9999999999999973,0.0;0.0;0.0;0.0;0.0;0.0;0.0;0.0;0.0,7.621289842063561e-05;0.0;0.0;0.0;7.621289842063561e-05;0.0;0.0;0.0;7.621289842063561e-05,3.999999975690116e-08;0.0;0.0;0.0;3.999999975690116e-08;0.0;0.0;0.0;3.999999975690116e-08
199,140000000,199.14,imu_link,-0.011159477162943974,0.001978174921489865,-0.004751803616218318,0.00011091138939591269,0.00040880482420950785,9.800126837002846,-4.61557079399435e-10,5.330484785058137e-08,-4.989105571316236e-08,0.9999999999999973,0.0;0.0;0.0;0.0;0.0;0.0;0.0;0.0;0.0,7.621289842063561e-05;0.0;0.0;0.0;7.621289842063561e-05;0.0;0.0;0.0;7.621289842063561e-05,3.999999975690116e-08;0.0;0.0;0.0;3.999999975690116e-08;0.0;0.0;0.0;3.999999975690116e-08
199,160000000,199.16,imu_link,0.002647592113191708,-0.0016523944540305336,-0.011489549352171004,0.000199658929327977,9.047017235427993e-06,9.800069904502339,-4.6155707937818277e-10,5.3304847850670677e-08,-4.989105571317752e-08,0.9999999999999973,0.0;0.0;0.0;0.0;0.0;0.0;0.0;0.0;0.0,7.621289842063561e-05;0.0;0.0;0.0;7.621289842063561e-05;0.0;0.0;0.0;7.621289842063561e-05,3.999999975690116e-08;0.0;0.0;0.0;3.999999975690116e-08;0.0;0.0;0.0;3.999999975690116e-08
199,180000000,199.18,imu_link,0.008731136648440732,0.006848367012277609,0.004160508517233957,0.00020740974284601021,0.0005167805255339108,9.800054869485846,-4.6155707960207797e-10,5.330484785036456e-08,-4.989105571319277e-08,0.9999999999999973,0.0;0.0;0.0;0.0;0.0;0.0;0.0;0.0;0.0,7.621289842063561e-05;0.0;0.0;0.0;7.621289842063561e-05;0.0;0.0;0.0;7.621289842063561e-05,3.999999975690116e-08;0.0;0.0;0.0;3.999999975690116e-08;0.0;0.0;0.0;3.999999975690116e-08
199,200000000,199.2,imu_link,0.004984879627514673,0.00297632419421458,0.007748511943718568,0.00029583771616968396,3.484208189093845e-05,9.800155491031006,-4.6155707958030084e-10,5.330484785047896e-08,-4.98910557132059e-08,0.9999999999999973,0.0;0.0;0.0;0.0;0.0;0.0;0.0;0.0;0.0,7.621289842063561e-05;0.0;0.0;0.0;7.621289842063561e-05;0.0;0.0;0.0;7.621289842063561e-05,3.999999975690116e-08;0.0;0.0;0.0;3.999999975690116e-08;0.0;0.0;0.0;3.999999975690116e-08
199,220000000,199.22,imu_link,0.01841142836262199,-0.005840960595822836,0.008542641169981163,0.0006229548967538654,0.00018316773219243952,9.800027496561858,-4.615570796465761e-10,5.330484785076196e-08,-4.9891055713220086e-08,0.9999999999999973,0.0;0.0;0.0;0.0;0.0;0.0;0.0;0.0;0.0,7.621289842063561e-05;0.0;0.0;0.0;7.621289842063561e-05;0.0;0.0;0.0;7.621289842063561e-05,3.999999975690116e-08;0.0;0.0;0.0;3.999999975690116e-08;0.0;0.0;0.0;3.999999975690116e-08
199,240000000,199.24,imu_link,0.01613149677269727,-0.0005065734254232719,-0.005573205428625453,6.28291984607464e-06,4.861603075087843e-05,9.799997293666976,-4.615570794715408e-10,5.33048478508566e-08,-4.989105571323529e-08,0.9999999999999973,0.0;0.0;0.0;0.0;0.0;0.0;0.0;0.0;0.0,7.621289842063561e-05;0.0;0.0;0.0;7.621289842063561e-05;0.0;0.0;0.0;7.621289842063561e-05,3.999999975690116e-08;0.0;0.0;0.0;3.999999975690116e-08;0.0;0.0;0.0;3.999999975690116e-08
199,260000000,199.26,imu_link,-0.009256969742049629,-0.007409619776707175,-0.0056871883573269355,2.968229819792846e-05,9.150747886088321e-05,9.800296064689809,-4.6155707959419887e-10,5.3304847850364104e-08,-4.989105571324835e-08,0.9999999999999973,0.0;0.0;0.0;0.0;0.0;0.0;0.0;0.0;0.0,7.621289842063561e-05;0.0;0.0;0.0;7.621289842063561e-05;0.0;0.0;0.0;7.621289842063561e-05,3.999999975690116e-08;0.0;0.0;0.0;3.999999975690116e-08;0.0;0.0;0.0;3.999999975690116e-08
199,280000000,199.28,imu_link,0.0009383298539481768,0.011352596656476645,-0.015014692884622167,0.00017379618941768194,-9.286092058304805e-05,9.799970935649949,-4.6155707954467805e-10,5.3304847850659725e-08,-4.989105571326197e-08,0.9999999999999973,0.0;0.0;0.0;0.0;0.0;0.0;0.0;0.0;0.0,7.621289842063561e-05;0.0;0.0;0.0;7.621289842063561e-05;0.0;0.0;0.0;7.621289842063561e-05,3.999999975690116e-08;0.0;0.0;0.0;3.999999975690116e-08;0.0;0.0;0.0;3.999999975690116e-08
199,300000000,199.3,imu_link,0.008571244414497312,0.005140311915263594,-0.005362101895098079,4.705041946471301e-05,8.046066995185014e-05,9.800151391446997,-4.6155707951884995e-10,5.330484785077418e-08,-4.989105571327504e-08,0.9999999999999973,0.0;0.0;0.0;0.0;0.0;0.0;0.0;0.0;0.0,7.621289842063561e-05;0.0;0.0;0.0;7.621289842063561e-05;0.0;0.0;0.0;7.621289842063561e-05,3.999999975690116e-08;0.0;0.0;0.0;3.999999975690116e-08;0.0;0.0;0.0;3.999999975690116e-08
199,320000000,199.32,imu_link,-0.011578398970086917,0.01773134274819797,0.012905325902985402,0.0001248511173704237,0.00031614713665596364,9.799820476547554,-4.61557079488835e-10,5.330484785088266e-08,-4.989105571328839e-08,0.9999999999999973,0.0;0.0;0.0;0.0;0.0;0.0;0.0;0.0;0.0,7.621289842063561e-05;0.0;0.0;0.0;7.621289842063561e-05;0.0;0.0;0.0;7.621289842063561e-05,3.999999975690116e-08;0.0;0.0;0.0;3.999999975690116e-08;0.0;0.0;0.0;3.999999975690116e-08
199,340000000,199.34,imu_link,0.017652750844722277,-0.010694870222035288,-0.000998155633886268,0.00013953976715564394,0.00032344951647236527,9.800146199085855,-4.6155707946851213e-10,5.330484785053149e-08,-4.989105571330162e-08,0.9999999999999973,0.0;0.0;0.0;0.0;0.0;0.0;0.0;0.0;0.0,7.621289842063561e-05;0.0;0.0;0.0;7.621289842063561e-05;0.0;0.0;0.0;7.621289842063561e-05,3.999999975690116e-08;0.0;0.0;0.0;3.999999975690116e-08;0.0;0.0;0.0;3.999999975690116e-08
199,360000000,199.36,imu_link,0.013060453529556157,-0.006480879971361478,0.0027055327205086285,-0.00018853715943900168,0.00019201413169731991,9.799917951304694,-4.615570794351777e-10,5.330484785051741e-08,-4.989105571331537e-08,0.9999999999999973,0.0;0.0;0.0;0.0;0.0;0.0;0.0;0.0;0.0,7.621289842063561e-05;0.0;0.0;0.0;7.621289842063561e-05;0.0;0.0;0.0;7.621289842063561e-05,3.999999975690116e-08;0.0;0.0;0.0;3.999999975690116e-08;0.0;0.0;0.0;3.999999975690116e-08
199,380000000,199.38,imu_link,0.00678590722108981,0.017609030325856142,-0.006462683731476865,0.00018709612804281885,0.00031337377339347387,9.800209633781453,-4.615570795056091e-10,5.3304847850692666e-08,-4.9891055713329347e-08,0.9999999999999973,0.0;0.0;0.0;0.0;0.0;0.0;0.0;0.0;0.0,7.621289842063561e-05;0.0;0.0;0.0;7.621289842063561e-05;0.0;0.0;0.0;7.621289842063561e-05,3.999999975690116e-08;0.0;0.0;0.0;3.999999975690116e-08;0.0;0.0;0.0;3.999999975690116e-08
199,400000000,199.4,imu_link,-0.008797379976123674,-0.015084366522683208,-0.0029472612326793346,2.6009172186989616e-05,7.355011228258132e-05,9.80008459525974,-4.615570795618396e-10,5.330484785039227e-08,-4.9891055713344044e-08,0.9999999999999973,0.0;0.0;0.0;0.0;0.0;0.0;0.0;0.0;0.0,7.621289842063561e-05;0.0;0.0;0.0;7.621289842063561e-05;0.0;0.0;0.0;7.621289842063561e-05,3.999999975690116e-08;0.0;0.0;0.0;3.999999975690116e-08;0.0;0.0;0.0;3.999999975690116e-08
199,420000000,199.42,imu_link,0.0038052567864620256,0.011636974363596973,0.005290981250574753,0.0001509471836269935,0.0001425832136774912,9.799954639977665,-4.6155707953049143e-10,5.330484785049856e-08,-4.989105571335941e-08,0.9999999999999973,0.0;0.0;0.0;0.0;0.0;0.0;0.0;0.0;0.0,7.621289842063561e-05;0.0;0.0;0.0;7.621289842063561e-05;0.0;0.0;0.0;7.621289842063561e-05,3.999999975690116e-08;0.0;0.0;0.0;3.999999975690116e-08;0.0;0.0;0.0;3.999999975690116e-08
199,440000000,199.44,imu_link,-0.013462746936446907,-0.013451144925830721,-0.0037348134667467138,0.00019784562413973034,0.00038767339249818754,9.799781946186943,-4.615570796984257e-10,5.330484785083043e-08,-4.9891055713374425e-08,0.9999999999999973,0.0;0.0;0.0;0.0;0.0;0.0;0.0;0.0;0.0,7.621289842063561e-05;0.0;0.0;0.0;7.621289842063561e-05;0.0;0.0;0.0;7.621289842063561e-05,3.999999975690116e-08;0.0;0.0;0.0;3.999999975690116e-08;0.0;0.0;0.0;3.999999975690116e-08
199,460000000,199.46,imu_link,0.01752952104862391,0.006658635355933546,-0.007209646464037199,0.00028920917745340474,-0.0001808112825374101,9.799770278205974,-4.615570794253538e-10,5.3304847850776e-08,-4.989105571338966e-08,0.9999999999999973,0.0;0.0;0.0;0.0;0.0;0.0;0.0;0.0;0.0,7.621289842063561e-05;0.0;0.0;0.0;7.621289842063561e-05;0.0;0.0;0.0;7.621289842063561e-05,3.999999975690116e-08;0.0;0.0;0.0;3.999999975690116e-08;0.0;0.0;0.0;3.999999975690116e-08
199,480000000,199.48,imu_link,0.010747629043520711,-0.0024245413160873886,0.0008275049558401383,0.00017088986222588994,0.00038806804435398564,9.800175381790295,-4.615570796402784e-10,5.330484785046791e-08,-4.989105571340439e-08,0.9999999999999973,0.0;0.0;0.0;0.0;0.0;0.0;0.0;0.0;0.0,7.621289842063561e-05;0.0;0.0;0.0;7.621289842063561e-05;0.0;0.0;0.0;7.621289842063561e-05,3.999999975690116e-08;0.0;0.0;0.0;3.999999975690116e-08;0.0;0.0;0.0;3.999999975690116e-08
199,500000000,199.5,imu_link,0.019903799547353496,0.0014378738130201366,0.011072886035094296,2.4677105097416915e-05,8.684812563398778e-05,9.800192316687095,-4.6155707957015174e-10,5.33048478507545e-08,-4.989105571341798e-08,0.9999999999999973,0.0;0.0;0.0;0.0;0.0;0.0;0.0;0.0;0.0,7.621289842063561e-05;0.0;0.0;0.0;7.621289842063561e-05;0.0;0.0;0.0;7.621289842063561e-05,3.999999975690116e-08;0.0;0.0;0.0;3.999999975690116e-08;0.0;0.0;0.0;3.999999975690116e-08
199,520000000,199.52,imu_link,-0.006136860109906407,-0.0035265148043566834,-0.01641609191582756,0.0003947484440767313,0.0003402312465803316,9.800228227385452,-4.6155707969840584e-10,5.330484785085795e-08,-4.989105571343197e-08,0.9999999999999973,0.0;0.0;0.0;0.0;0.0;0.0;0.0;0.0;0.0,7.621289842063561e-05;0.0;0.0;0.0;7.621289842063561e-05;0.0;0.0;0.0;7.621289842063561e-05,3.999999975690116e-08;0.0;0.0;0.0;3.999999975690116e-08;0.0;0.0;0.0;3.999999975690116e-08
199,540000000,199.54,imu_link,0.002177366866801386,-0.004185329080263195,-0.00032003978045745186,0.000350047221212767,0.00016934835335868063,9.799917329237172,-4.615570794660468e-10,5.3304847850273464e-08,-4.989105571344438e-08,0.9999999999999973,0.0;0.0;0.0;0.0;0.0;0.0;0.0;0.0;0.0,7.621289842063561e-05;0.0;0.0;0.0;7.621289842063561e-05;0.0;0.0;0.0;7.621289842063561e-05,3.999999975690116e-08;0.0;0.0;0.0;3.999999975690116e-08;0.0;0.0;0.0;3.999999975690116e-08
199,560000000,199.56,imu_link,0.0013404723458197859,0.003768323126526981,-0.011181796761782251,0.00046180479151198504,0.00010884825207175347,9.800152538654793,-4.6155707940315416e-10,5.330484785055944e-08,-4.989105571345847e-08,0.9999999999999973,0.0;0.0;0.0;0.0;0.0;0.0;0.0;0.0;0.0,7.621289842063561e-05;0.0;0.0;0.0;7.621289842063561e-05;0.0;0.0;0.0;7.621289842063561e-05,3.999999975690116e-08;0.0;0.0;0.0;3.999999975690116e-08;0.0;0.0;0.0;3.999999975690116e-08
199,580000000,199.58,imu_link,0.00451411632321702,-0.013350099426453788,0.0059692357370553645,0.00034989465242563176,0.00014853519204928938,9.800026323218756,-4.6155707947270827e-10,5.33048478507232e-08,-4.9891055713471867e-08,0.9999999999999973,0.0;0.0;0.0;0.0;0.0;0.0;0.0;0.0;0.0,7.621289842063561e-05;0.0;0.0;0.0;7.621289842063561e-05;0.0;0.0;0.0;7.621289842063561e-05,3.999999975690116e-08;0.0;0.0;0.0;3.999999975690116e-08;0.0;0.0;0.0;3.999999975690116e-08
199,600000000,199.6,imu_link,-0.026657342147949025,0.001883969992569976,-0.004796918346450135,0.0002276010710410666,0.00021295513268759932,9.800197135990267,-4.6155707956447325e-10,5.330484785035973e-08,-4.9891055713485273e-08,0.9999999999999973,0.0;0.0;0.0;0.0;0.0;0.0;0.0;0.0;0.0,7.621289842063561e-05;0.0;0.0;0.0;7.621289842063561e-05;0.0;0.0;0.0;7.621289842063561e-05,3.999999975690116e-08;0.0;0.0;0.0;3.999999975690116e-08;0.0;0.0;0.0;3.999999975690116e-08
199,620000000,199.62,imu_link,0.005156533009897773,-0.002508859395979376,-0.008519383677427252,0.00024144573726616323,0.000329586776794152,9.799820659764803,-4.6155707938831423e-10,5.330484785046169e-08,-4.9891055713499766e-08,0.9999999999999973,0.0;0.0;0.0;0.0;0.0;0.0;0.0;0.0;0.0,7.621289842063561e-05;0.0;0.0;0.0;7.621289842063561e-05;0.0;0.0;0.0;7.621289842063561e-05,3.999999975690116e-08;0.0;0.0;0.0;3.999999975690116e-08;0.0;0.0;0.0;3.999999975690116e-08
199,640000000,199.64,imu_link,0.0056066623053054425,-0.006499478553831326,-0.002342267560453497,-0.00026777887814178366,0.00023750728901128054,9.799895878905824,-4.6155707958512645e-10,5.330484785061943e-08,-4.9891055713512756e-08,0.9999999999999973,0.0;0.0;0.0;0.0;0.0;0.0;0.0;0.0;0.0,7.621289842063561e-05;0.0;0.0;0.0;7.621289842063561e-05;0.0;0.0;0.0;7.621289842063561e-05,3.999999975690116e-08;0.0;0.0;0.0;3.999999975690116e-08;0.0;0.0;0.0;3.999999975690116e-08
199,660000000,199.66,imu_link,0.007712380803965089,-0.003278239097972063,0.010731849183414861,-6.884647246210645e-05,3.064593589745165e-05,9.80019484683626,-4.6155707940586494e-10,5.330484785026923e-08,-4.9891055713528095e-08,0.9999999999999973,0.0;0.0;0.0;0.0;0.0;0.0;0.0;0.0;0.0,7.621289842063561e-05;0.0;0.0;0.0;7.621289842063561e-05;0.0;0.0;0.0;7.621289842063561e-05,3.999999975690116e-08;0.0;0.0;0.0;3.999999975690116e-08;0.0;0.0;0.0;3.999999975690116e-08
199,680000000,199.68,imu_link,-0.010436794731105238,-0.00022764601260034337,-0.004337113051537412,-7.156502713587743e-05,5.545470794661732e-05,9.799962964969469,-4.615570796080683e-10,5.33048478504289e-08,-4.9891055713544956e-08,0.9999999999999973,0.0;0.0;0.0;0.0;0.0;0.0;0.0;0.0;0.0,7.621289842063561e-05;0.0;0.0;0.0;7.621289842063561e-05;0.0;0.0;0.0;7.621289842063561e-05,3.999999975690116e-08;0.0;0.0;0.0;3.999999975690116e-08;0.0;0.0;0.0;3.999999975690116e-08
199,700000000,199.7,imu_link,0.001665384830404917,0.017445583987968555,-0.004294635710930566,0.00014112086979625415,6.310829731816358e-05,9.800184533635003,-4.615570794326957e-10,5.330484785054593e-08,-4.989105571356098e-08,0.9999999999999973,0.0;0.0;0.0;0.0;0.0;0.0;0.0;0.0;0.0,7.621289842063561e-05;0.0;0.0;0.0;7.621289842063561e-05;0.0;0.0;0.0;7.621289842063561e-05,3.999999975690116e-08;0.0;0.0;0.0;3.999999975690116e-08;0.0;0.0;0.0;3.999999975690116e-08
199,720000000,199.72,imu_link,-0.00692266444209634,-9.325513548487327e-05,-0.014038249386345255,0.00035135435488339113,9.373931351569083e-05,9.799916133909182,-4.615570795344528e-10,5.3304847850658686e-08,-4.9891055713577534e-08,0.9999999999999973,0.0;0.0;0.0;0.0;0.0;0.0;0.0;0.0;0.0,7.621289842063561e-05;0.0;0.0;0.0;7.621289842063561e-05;0.0;0.0;0.0;7.621289842063561e-05,3.999999975690116e-08;0.0;0.0;0.0;3.999999975690116e-08;0.0;0.0;0.0;3.999999975690116e-08
199,740000000,199.74,imu_link,-5.9657452592537946e-05,0.006081820384721043,0.003915966182475139,-0.0001857644607254811,0.000256858663767983,9.800035855692204,-4.615570795912504e-10,5.3304847850357625e-08,-4.989105571359333e-08,0.9999999999999973,0.0;0.0;0.0;0.0;0.0;0.0;0.0;0.0;0.0,7.621289842063561e-05;0.0;0.0;0.0;7.621289842063561e-05;0.0;0.0;0.0;7.621289842063561e-05,3.999999975690116e-08;0.0;0.0;0.0;3.999999975690116e-08;0.0;0.0;0.0;3.999999975690116e-08
199,760000000,199.76,imu_link,0.008766046346569004,0.014922136778630161,0.008664312167313358,-0.00021823400136326783,0.0003389589632738577,9.799789566939543,-4.615570795493198e-10,5.330484785046492e-08,-4.989105571360953e-08,0.9999999999999973,0.0;0.0;0.0;0.0;0.0;0.0;0.0;0.0;0.0,7.621289842063561e-05;0.0;0.0;0.0;7.621289842063561e-05;0.0;0.0;0.0;7.621289842063561e-05,3.999999975690116e-08;0.0;0.0;0.0;3.999999975690116e-08;0.0;0.0;0.0;3.999999975690116e-08
199,780000000,199.78,imu_link,-0.003001976116768734,-0.00869904138746008,-0.010077856409399968,-0.00014665563748144798,0.0002690231907947768,9.799925740060974,-4.615570793755277e-10,5.3304847850581626e-08,-4.98910557136274e-08,0.9999999999999973,0.0;0.0;0.0;0.0;0.0;0.0;0.0;0.0;0.0,7.621289842063561e-05;0.0;0.0;0.0;7.621289842063561e-05;0.0;0.0;0.0;7.621289842063561e-05,3.999999975690116e-08;0.0;0.0;0.0;3.999999975690116e-08;0.0;0.0;0.0;3.999999975690116e-08
199,800000000,199.8,imu_link,0.007235639057102234,0.006148608292074915,0.015051867641886969,0.00010921566601426478,0.00032869137299756327,9.800153340120636,-4.6155707957141625e-10,5.330484785027126e-08,-4.989105571364469e-08,0.9999999999999973,0.0;0.0;0.0;0.0;0.0;0.0;0.0;0.0;0.0,7.621289842063561e-05;0.0;0.0;0.0;7.621289842063561e-05;0.0;0.0;0.0;7.621289842063561e-05,3.999999975690116e-08;0.0;0.0;0.0;3.999999975690116e-08;0.0;0.0;0.0;3.999999975690116e-08
199,820000000,199.82,imu_link,-0.004578503721489702,-0.0069595568845532306,-0.0013295466904483402,7.163467730185121e-06,0.0002024681491269355,9.79994729146628,-4.6155707939359185e-10,5.330484785038102e-08,-4.989105571366202e-08,0.9999999999999973,0.0;0.0;0.0;0.0;0.0;0.0;0.0;0.0;0.0,7.621289842063561e-05;0.0;0.0;0.0;7.621289842063561e-05;0.0;0.0;0.0;7.621289842063561e-05,3.999999975690116e-08;0.0;0.0;0.0;3.999999975690116e-08;0.0;0.0;0.0;3.999999975690116e-08
199,840000000,199.84,imu_link,-0.0037987410977434713,0.01217001711883932,0.009483309659281909,0.00032621035296878144,0.00020175083047325155,9.799909639914757,-4.6155707950053126e-10,5.330484785048476e-08,-4.989105571367955e-08,0.9999999999999973,0.0;0.0;0.0;0.0;0.0;0.0;0.0;0.0;0.0,7.621289842063561e-05;0.0;0.0;0.0;7.621289842063561e-05;0.0;0.0;0.0;7.621289842063561e-05,3.999999975690116e-08;0.0;0.0;0.0;3.999999975690116e-08;0.0;0.0;0.0;3.999999975690116e-08
199,860000000,199.86,imu_link,-0.0035267081770867324,-0.01551326295474665,0.004168475650477811,0.0003318373471379644,0.00044549765709453275,9.800090425372682,-4.615570794339268e-10,5.330484785078094e-08,-4.989105571369813e-08,0.9999999999999973,0.0;0.0;0.0;0.0;0.0;0.0;0.0;0.0;0.0,7.621289842063561e-05;0.0;0.0;0.0;7.621289842063561e-05;0.0;0.0;0.0;7.621289842063561e-05,3.999999975690116e-08;0.0;0.0;0.0;3.999999975690116e-08;0.0;0.0;0.0;3.999999975690116e-08
199,880000000,199.88,imu_link,0.004753524685621644,-0.01374751704904344,0.004540014998935752,0.00020645321044066532,-0.00014880955269782985,9.800013043231992,-4.615570795415132e-10,5.3304847850288546e-08,-4.9891055713714826e-08,0.9999999999999973,0.0;0.0;0.0;0.0;0.0;0.0;0.0;0.0;0.0,7.621289842063561e-05;0.0;0.0;0.0;7.621289842063561e-05;0.0;0.0;0.0;7.621289842063561e-05,3.999999975690116e-08;0.0;0.0;0.0;3.999999975690116e-08;0.0;0.0;0.0;3.999999975690116e-08
199,900000000,199.9,imu_link,-0.007641921781640168,-0.008882033468925611,0.005393889110571651,9.712990902909834e-05,0.00021045167102357845,9.800185262014812,-4.6155707960131097e-10,5.330484785058207e-08,-4.989105571373041e-08,0.9999999999999973,0.0;0.0;0.0;0.0;0.0;0.0;0.0;0.0;0.0,7.621289842063561e-05;0.0;0.0;0.0;7.621289842063561e-05;0.0;0.0;0.0;7.621289842063561e-05,3.999999975690116e-08;0.0;0.0;0.0;3.999999975690116e-08;0.0;0.0;0.0;3.999999975690116e-08
199,920000000,199.92,imu_link,0.01073783244093817,0.014428694710217169,-0.013970008842562392,0.0003181822786382622,-9.87992157881966e-05,9.79980695498164,-4.615570794425111e-10,5.330484785069485e-08,-4.989105571374687e-08,0.9999999999999973,0.0;0.0;0.0;0.0;0.0;0.0;0.0;0.0;0.0,7.621289842063561e-05;0.0;0.0;0.0;7.621289842063561e-05;0.0;0.0;0.0;7.621289842063561e-05,3.999999975690116e-08;0.0;0.0;0.0;3.999999975690116e-08;0.0;0.0;0.0;3.999999975690116e-08
199,940000000,199.94,imu_link,-0.02098572598705654,-0.003553809067376742,0.008676786329321937,0.00031823878543331874,0.00033495567753043454,9.79996455378394,-4.615570794071173e-10,5.330484785080273e-08,-4.989105571376331e-08,0.9999999999999973,0.0;0.0;0.0;0.0;0.0;0.0;0.0;0.0;0.0,7.621289842063561e-05;0.0;0.0;0.0;7.621289842063561e-05;0.0;0.0;0.0;7.621289842063561e-05,3.999999975690116e-08;0.0;0.0;0.0;3.999999975690116e-08;0.0;0.0;0.0;3.999999975690116e-08
199,960000000,199.96,imu_link,0.009254955310246284,0.00527199902213289,0.002615732358081167,0.00011351302787435705,0.00017940980020037005,9.800117255605095,-4.6155707960667916e-10,5.330484785050413e-08,-4.9891055713778334e-08,0.9999999999999973,0.0;0.0;0.0;0.0;0.0;0.0;0.0;0.0;0.0,7.621289842063561e-05;0.0;0.0;0.0;7.621289842063561e-05;0.0;0.0;0.0;7.621289842063561e-05,3.999999975690116e-08;0.0;0.0;0.0;3.999999975690116e-08;0.0;0.0;0.0;3.999999975690116e-08
199,980000000,199.98,imu_link,-0.0003364944652389672,0.0029029624526457783,0.0013836794692819137,-7.388880661350817e-05,0.00013340833626122726,9.79983420108692,-4.615570795744684e-10,5.3304847850616076e-08,-4.989105571379526e-08,0.9999999999999973,0.0;0.0;0.0;0.0;0.0;0.0;0.0;0.0;0.0,7.621289842063561e-05;0.0;0.0;0.0;7.621289842063561e-05;0.0;0.0;0.0;7.621289842063561e-05,3.999999975690116e-08;0.0;0.0;0.0;3.999999975690116e-08;0.0;0.0;0.0;3.999999975690116e-08
200,0,200.0,imu_link,-0.0015479446614608205,-0.012921460833629207,0.011598827887427752,-0.0001373291836720418,-0.0001406745226383198,9.79992112511931,-4.6155707949952846e-10,5.330484785079576e-08,-4.989105571381098e-08,0.9999999999999973,0.0;0.0;0.0;0.0;0.0;0.0;0.0;0.0;0.0,7.621289842063561e-05;0.0;0.0;0.0;7.621289842063561e-05;0.0;0.0;0.0;7.621289842063561e-05,3.999999975690116e-08;0.0;0.0;0.0;3.999999975690116e-08;0.0;0.0;0.0;3.999999975690116e-08
200,20000000,200.02,imu_link,0.006025154168285848,-0.013630310996751147,-0.0036318440810208436,0.00022329330866677726,-0.00013152279581394964,9.800067080609171,-4.6155707960737916e-10,5.3304847850442315e-08,-4.98910557138255e-08,0.9999999999999973,0.0;0.0;0.0;0.0;0.0;0.0;0.0;0.0;0.0,7.621289842063561e-05;0.0;0.0;0.0;7.621289842063561e-05;0.0;0.0;0.0;7.621289842063561e-05,3.999999975690116e-08;0.0;0.0;0.0;3.999999975690116e-08;0.0;0.0;0.0;3.999999975690116e-08
200,40000000,200.04,imu_link,-0.0002663028318103178,-0.011810803444875546,0.0063477598122907595,-8.762120057568385e-05,0.0006080607199645061,9.7996863240544,-4.6155707954477834e-10,5.330484785062976e-08,-4.9891055713841504e-08,0.9999999999999973,0.0;0.0;0.0;0.0;0.0;0.0;0.0;0.0;0.0,7.621289842063561e-05;0.0;0.0;0.0;7.621289842063561e-05;0.0;0.0;0.0;7.621289842063561e-05,3.999999975690116e-08;0.0;0.0;0.0;3.999999975690116e-08;0.0;0.0;0.0;3.999999975690116e-08
200,60000000,200.06,imu_link,-0.010972640072025976,-0.01809403893660156,-0.012909624821283145,0.0005102010071992894,5.8957783143818503e-05,9.800386209326854,-4.615570796628456e-10,5.330484785061542e-08,-4.989105571385835e-08,0.9999999999999973,0.0;0.0;0.0;0.0;0.0;0.0;0.0;0.0;0.0,7.621289842063561e-05;0.0;0.0;0.0;7.621289842063561e-05;0.0;0.0;0.0;7.621289842063561e-05,3.999999975690116e-08;0.0;0.0;0.0;3.999999975690116e-08;0.0;0.0;0.0;3.999999975690116e-08
200,80000000,200.08,imu_link,-0.010346278190515026,-0.024687597670770993,-0.0014435449497883258,0.00040683344889454594,0.00017809556995215637,9.799875616479747,-4.615570794708353e-10,5.3304847850263505e-08,-4.9891055713875094e-08,0.9999999999999973,0.0;0.0;0.0;0.0;0.0;0.0;0.0;0.0;0.0,7.621289842063561e-05;0.0;0.0;0.0;7.621289842063561e-05;0.0;0.0;0.0;7.621289842063561e-05,3.999999975690116e-08;0.0;0.0;0.0;3.999999975690116e-08;0.0;0.0;0.0;3.999999975690116e-08
200,100000000,200.1,imu_link,-0.011042865898163636,-0.0019070348213930362,0.0004433671085676095,0.00023343221323297533,0.000380528651365722,9.800097300287053,-4.61557079544563e-10,5.330484785042043e-08,-4.989105571389263e-08,0.9999999999999973,0.0;0.0;0.0;0.0;0.0;0.0;0.0;0.0;0.0,7.621289842063561e-05;0.0;0.0;0.0;7.621289842063561e-05;0.0;0.0;0.0;7.621289842063561e-05,3.999999975690116e-08;0.0;0.0;0.0;3.999999975690116e-08;0.0;0.0;0.0;3.999999975690116e-08
200,120000000,200.12,imu_link,-0.0036107654145985124,-4.956026803318965e-05,0.001981830546221622,-8.686457277385292e-05,-0.00015413808024028366,9.800168271836434,-4.615570794946598e-10,5.3304847850711883e-08,-4.989105571390962e-08,0.9999999999999973,0.0;0.0;0.0;0.0;0.0;0.0;0.0;0.0;0.0,7.621289842063561e-05;0.0;0.0;0.0;7.621289842063561e-05;0.0;0.0;0.0;7.621289842063561e-05,3.999999975690116e-08;0.0;0.0;0.0;3.999999975690116e-08;0.0;0.0;0.0;3.999999975690116e-08
200,140000000,200.14,imu_link,-0.004233903302305391,-0.01319205357080676,0.007867797237507189,0.0002955655615718716,-0.00011323830878265534,9.800337453735992,-4.615570794887938e-10,5.330484785082649e-08,-4.9891055713927014e-08,0.9999999999999973,0.0;0.0;0.0;0.0;0.0;0.0;0.0;0.0;0.0,7.621289842063561e-05;0.0;0.0;0.0;7.621289842063561e-05;0.0;0.0;0.0;7.621289842063561e-05,3.999999975690116e-08;0.0;0.0;0.0;3.999999975690116e-08;0.0;0.0;0.0;3.999999975690116e-08
200,160000000,200.16,imu_link,-0.0015604490622037675,-0.005145781079305981,0.00020318752083253917,6.409387241349026e-05,6.245066526508965e-05,9.799863952443623,-4.615570794978166e-10,5.3304847850285005e-08,-4.989105571394293e-08,0.9999999999999973,0.0;0.0;0.0;0.0;0.0;0.0;0.0;0.0;0.0,7.621289842063561e-05;0.0;0.0;0.0;7.621289842063561e-05;0.0;0.0;0.0;7.621289842063561e-05,3.999999975690116e-08;0.0;0.0;0.0;3.999999975690116e-08;0.0;0.0;0.0;3.999999975690116e-08
200,180000000,200.18,imu_link,-0.0032160472584161644,-0.004657113177537468,0.0070675388280024435,0.00025902172603729583,0.0001557950020164891,9.800097308820247,-4.615570796759361e-10,5.3304847850624215e-08,-4.989105571396164e-08,0.9999999999999973,0.0;0.0;0.0;0.0;0.0;0.0;0.0;0.0;0.0,7.621289842063561e-05;0.0;0.0;0.0;7.621289842063561e-05;0.0;0.0;0.0;7.621289842063561e-05,3.999999975690116e-08;0.0;0.0;0.0;3.999999975690116e-08;0.0;0.0;0.0;3.999999975690116e-08
200,200000000,200.2,imu_link,-0.009053778045557808,-0.01164567965009349,-0.010196161437318402,-3.84968971496384e-05,0.0001727606708654921,9.800094351128472,-4.615570793926625e-10,5.3304847850672086e-08,-4.989105571397914e-08,0.9999999999999973,0.0;0.0;0.0;0.0;0.0;0.0;0.0;0.0;0.0,7.621289842063561e-05;0.0;0.0;0.0;7.621289842063561e-05;0.0;0.0;0.0;7.621289842063561e-05,3.999999975690116e-08;0.0;0.0;0.0;3.999999975690116e-08;0.0;0.0;0.0;3.999999975690116e-08
200,220000000,200.22,imu_link,0.009911027876337042,-0.013006424022241708,0.008040564884426732,1.7950114188549976e-05,0.00013427795903414323,9.799769019803596,-4.6155707938275413e-10,5.330484785030671e-08,-4.9891055713998185e-08,0.9999999999999973,0.0;0.0;0.0;0.0;0.0;0.0;0.0;0.0;0.0,7.621289842063561e-05;0.0;0.0;0.0;7.621289842063561e-05;0.0;0.0;0.0;7.621289842063561e-05,3.999999975690116e-08;0.0;0.0;0.0;3.999999975690116e-08;0.0;0.0;0.0;3.999999975690116e-08
200,240000000,200.24,imu_link,-0.0005145651024989852,-0.009846155836075452,0.0027236126341189802,0.0002296714890589904,5.773803421091905e-05,9.800439385432266,-4.6155707949850917e-10,5.330484785039854e-08,-4.98910557140161e-08,0.9999999999999973,0.0;0.0;0.0;0.0;0.0;0.0;0.0;0.0;0.0,7.621289842063561e-05;0.0;0.0;0.0;7.621289842063561e-05;0.0;0.0;0.0;7.621289842063561e-05,3.999999975690116e-08;0.0;0.0;0.0;3.999999975690116e-08;0.0;0.0;0.0;3.999999975690116e-08
200,260000000,200.26,imu_link,0.0058856369784435585,-0.005439932922563858,-0.006469560981211745,-2.2063061048038527e-05,0.0003835035248355731,9.799832724967777,-4.6155707943046384e-10,5.330484785057806e-08,-4.9891055714034746e-08,0.9999999999999973,0.0;0.0;0.0;0.0;0.0;0.0;0.0;0.0;0.0,7.621289842063561e-05;0.0;0.0;0.0;7.621289842063561e-05;0.0;0.0;0.0;7.621289842063561e-05,3.999999975690116e-08;0.0;0.0;0.0;3.999999975690116e-08;0.0;0.0;0.0;3.999999975690116e-08
200,280000000,200.28,imu_link,0.0020132206625059637,0.00462863027449316,0.000511875667737954,-0.0002765447422373254,5.288695616052736e-05,9.799775117246936,-4.615570795127247e-10,5.3304847850866924e-08,-4.989105571405326e-08,0.9999999999999973,0.0;0.0;0.0;0.0;0.0;0.0;0.0;0.0;0.0,7.621289842063561e-05;0.0;0.0;0.0;7.621289842063561e-05;0.0;0.0;0.0;7.621289842063561e-05,3.999999975690116e-08;0.0;0.0;0.0;3.999999975690116e-08;0.0;0.0;0.0;3.999999975690116e-08
200,300000000,200.3,imu_link,-0.003725226256941976,-0.002260996572196123,-0.00860439336061407,8.204941097321303e-05,0.0006613466491594275,9.799891672959173,-4.615570793944513e-10,5.33048478503274e-08,-4.989105571407118e-08,0.9999999999999973,0.0;0.0;0.0;0.0;0.0;0.0;0.0;0.0;0.0,7.621289842063561e-05;0.0;0.0;0.0;7.621289842063561e-05;0.0;0.0;0.0;7.621289842063561e-05,3.999999975690116e-08;0.0;0.0;0.0;3.999999975690116e-08;0.0;0.0;0.0;3.999999975690116e-08
200,320000000,200.32,imu_link,-0.00617464242369307,0.008281506030105691,0.008763411598943142,-0.00025453527108260717,-2.789509680506955e-05,9.799917665529328,-4.6155707951107213e-10,5.3304847850422833e-08,-4.989105571408772e-08,0.9999999999999973,0.0;0.0;0.0;0.0;0.0;0.0;0.0;0.0;0.0,7.621289842063561e-05;0.0;0.0;0.0;7.621289842063561e-05;0.0;0.0;0.0;7.621289842063561e-05,3.999999975690116e-08;0.0;0.0;0.0;3.999999975690116e-08;0.0;0.0;0.0;3.999999975690116e-08
200,340000000,200.34,imu_link,-0.0015072888405782082,0.0010190797636232902,0.002757221347273455,6.579995765031025e-07,0.00012885440472771193,9.800095465308958,-4.615570794381808e-10,5.330484785072412e-08,-4.989105571410597e-08,0.9999999999999973,0.0;0.0;0.0;0.0;0.0;0.0;0.0;0.0;0.0,7.621289842063561e-05;0.0;0.0;0.0;7.621289842063561e-05;0.0;0.0;0.0;7.621289842063561e-05,3.999999975690116e-08;0.0;0.0;0.0;3.999999975690116e-08;0.0;0.0;0.0;3.999999975690116e-08
200,360000000,200.36,imu_link,-0.004770049676463676,-0.004173012577293697,-0.007245034972944863,4.126802292094201e-05,0.00013244940567886415,9.800115760600045,-4.6155707942090587e-10,5.330484785083794e-08,-4.989105571412314e-08,0.9999999999999973,0.0;0.0;0.0;0.0;0.0;0.0;0.0;0.0;0.0,7.621289842063561e-05;0.0;0.0;0.0;7.621289842063561e-05;0.0;0.0;0.0;7.621289842063561e-05,3.999999975690116e-08;0.0;0.0;0.0;3.999999975690116e-08;0.0;0.0;0.0;3.999999975690116e-08
200,380000000,200.38,imu_link,0.006798136082057316,0.006825300483258296,-0.0016017930737818001,0.0002052927738175874,-7.12195785349631e-06,9.799886118955799,-4.615570796265732e-10,5.3304847850524894e-08,-4.989105571414223e-08,0.9999999999999973,0.0;0.0;0.0;0.0;0.0;0.0;0.0;0.0;0.0,7.621289842063561e-05;0.0;0.0;0.0;7.621289842063561e-05;0.0;0.0;0.0;7.621289842063561e-05,3.999999975690116e-08;0.0;0.0;0.0;3.999999975690116e-08;0.0;0.0;0.0;3.999999975690116e-08
200,400000000,200.4,imu_link,0.00025789858591892395,-0.004672055857067437,-0.001252524830010199,0.00026987738953539213,0.0002827428722886491,9.800079327712755,-4.6155707959581177e-10,5.3304847850629344e-08,-4.989105571416008e-08,0.9999999999999973,0.0;0.0;0.0;0.0;0.0;0.0;0.0;0.0;0.0,7.621289842063561e-05;0.0;0.0;0.0;7.621289842063561e-05;0.0;0.0;0.0;7.621289842063561e-05,3.999999975690116e-08;0.0;0.0;0.0;3.999999975690116e-08;0.0;0.0;0.0;3.999999975690116e-08
200,420000000,200.42,imu_link,-0.004107992700882362,0.003407900080023328,-0.0031670423625793647,6.392377480334125e-05,0.0004847449484136357,9.799933427151966,-4.615570795638419e-10,5.3304847850616996e-08,-4.989105571417807e-08,0.9999999999999973,0.0;0.0;0.0;0.0;0.0;0.0;0.0;0.0;0.0,7.621289842063561e-05;0.0;0.0;0.0;7.621289842063561e-05;0.0;0.0;0.0;7.621289842063561e-05,3.999999975690116e-08;0.0;0.0;0.0;3.999999975690116e-08;0.0;0.0;0.0;3.999999975690116e-08
200,440000000,200.44,imu_link,-0.003239616588133778,-0.002561936217535349,-0.00110917049808861,0.00020198640867171612,0.0003470344980440968,9.800319542581574,-4.6155707963996403e-10,5.330484785043888e-08,-4.989105571419617e-08,0.9999999999999973,0.0;0.0;0.0;0.0;0.0;0.0;0.0;0.0;0.0,7.621289842063561e-05;0.0;0.0;0.0;7.621289842063561e-05;0.0;0.0;0.0;7.621289842063561e-05,3.999999975690116e-08;0.0;0.0;0.0;3.999999975690116e-08;0.0;0.0;0.0;3.999999975690116e-08
200,460000000,200.46,imu_link,-0.002567796798232749,-0.007972569418152253,-0.002839980781263117,-1.2856221399689191e-05,9.488731111361638e-06,9.80009137631794,-4.6155707947144325e-10,5.330484785056223e-08,-4.989105571421508e-08,0.9999999999999973,0.0;0.0;0.0;0.0;0.0;0.0;0.0;0.0;0.0,7.621289842063561e-05;0.0;0.0;0.0;7.621289842063561e-05;0.0;0.0;0.0;7.621289842063561e-05,3.999999975690116e-08;0.0;0.0;0.0;3.999999975690116e-08;0.0;0.0;0.0;3.999999975690116e-08
200,480000000,200.48,imu_link,-0.008720762238988522,-0.008620303459981984,0.007649505394871966,-0.00013583451255304524,-0.00014505316370505924,9.800498249198014,-4.6155707944242e-10,5.330484785054605e-08,-4.989105571423365e-08,0.9999999999999973,0.0;0.0;0.0;0.0;0.0;0.0;0.0;0.0;0.0,7.621289842063561e-05;0.0;0.0;0.0;7.621289842063561e-05;0.0;0.0;0.0;7.621289842063561e-05,3.999999975690116e-08;0.0;0.0;0.0;3.999999975690116e-08;0.0;0.0;0.0;3.999999975690116e-08
200,500000000,200.5,imu_link,0.004205050763128543,-0.007112063718445231,-0.0027882476002119364,0.0006050318788989203,0.0006110711818536411,9.800202829571614,-4.6155707947004133e-10,5.330484785089404e-08,-4.9891055714250866e-08,0.9999999999999973,0.0;0.0;0.0;0.0;0.0;0.0;0.0;0.0;0.0,7.621289842063561e-05;0.0;0.0;0.0;7.621289842063561e-05;0.0;0.0;0.0;7.621289842063561e-05,3.999999975690116e-08;0.0;0.0;0.0;3.999999975690116e-08;0.0;0.0;0.0;3.999999975690116e-08
200,520000000,200.52,imu_link,-0.002012202655263369,-0.004170875036816739,-0.013557507611462115,0.00020830426996923892,0.000248645810993376,9.800213631605702,-4.6155707959194976e-10,5.3304847850407276e-08,-4.989105571426839e-08,0.9999999999999973,0.0;0.0;0.0;0.0;0.0;0.0;0.0;0.0;0.0,7.621289842063561e-05;0.0;0.0;0.0;7.621289842063561e-05;0.0;0.0;0.0;7.621289842063561e-05,3.999999975690116e-08;0.0;0.0;0.0;3.999999975690116e-08;0.0;0.0;0.0;3.999999975690116e-08
200,540000000,200.54,imu_link,-0.009302171309062024,-0.00465150210144581,0.0040877466675172894,-5.773341586981848e-05,0.0003408141245892457,9.800134147878458,-4.6155707943039875e-10,5.330484785053055e-08,-4.989105571428621e-08,0.9999999999999973,0.0;0.0;0.0;0.0;0.0;0.0;0.0;0.0;0.0,7.621289842063561e-05;0.0;0.0;0.0;7.621289842063561e-05;0.0;0.0;0.0;7.621289842063561e-05,3.999999975690116e-08;0.0;0.0;0.0;3.999999975690116e-08;0.0;0.0;0.0;3.999999975690116e-08
200,560000000,200.56,imu_link,0.002705403562361868,-0.0004710838991965179,-0.011606392532439733,-0.0002838543263091324,2.867568520354903e-05,9.799981568163382,-4.615570796420748e-10,5.330484785069815e-08,-4.9891055714305115e-08,0.9999999999999973,0.0;0.0;0.0;0.0;0.0;0.0;0.0;0.0;0.0,7.621289842063561e-05;0.0;0.0;0.0;7.621289842063561e-05;0.0;0.0;0.0;7.621289842063561e-05,3.999999975690116e-08;0.0;0.0;0.0;3.999999975690116e-08;0.0;0.0;0.0;3.999999975690116e-08
200,580000000,200.58,imu_link,0.006164499495811039,-0.006407900493124833,-0.0014760625147784373,6.540408240351245e-05,0.00035365308450048804,9.800009481242942,-4.6155707938569093e-10,5.330484785029557e-08,-4.9891055714322956e-08,0.9999999999999973,0.0;0.0;0.0;0.0;0.0;0.0;0.0;0.0;0.0,7.621289842063561e-05;0.0;0.0;0.0;7.621289842063561e-05;0.0;0.0;0.0;7.621289842063561e-05,3.999999975690116e-08;0.0;0.0;0.0;3.999999975690116e-08;0.0;0.0;0.0;3.999999975690116e-08
200,600000000,200.6,imu_link,0.01640233939842951,0.0009303484348497542,0.018061785040947465,-6.860969076239342e-05,-0.0002016312377236419,9.800003868922888,-4.6155707956078635e-10,5.330484785051841e-08,-4.989105571433967e-08,0.9999999999999973,0.0;0.0;0.0;0.0;0.0;0.0;0.0;0.0;0.0,7.621289842063561e-05;0.0;0.0;0.0;7.621289842063561e-05;0.0;0.0;0.0;7.621289842063561e-05,3.999999975690116e-08;0.0;0.0;0.0;3.999999975690116e-08;0.0;0.0;0.0;3.999999975690116e-08
200,620000000,200.62,imu_link,-0.0017477776246623293,0.0011018558962468865,-0.014661149177145222,0.00013817244914750182,0.00013260534566084516,9.800097951237737,-4.6155707960804184e-10,5.330484785068867e-08,-4.9891055714358234e-08,0.9999999999999973,0.0;0.0;0.0;0.0;0.0;0.0;0.0;0.0;0.0,7.621289842063561e-05;0.0;0.0;0.0;7.621289842063561e-05;0.0;0.0;0.0;7.621289842063561e-05,3.999999975690116e-08;0.0;0.0;0.0;3.999999975690116e-08;0.0;0.0;0.0;3.999999975690116e-08
200,640000000,200.64,imu_link,0.009134819172174197,0.0115576772235716,-0.0028509116353450754,0.0002837244563201765,4.312945584081517e-05,9.799792660336943,-4.6155707957025e-10,5.330484785033621e-08,-4.9891055714374446e-08,0.9999999999999973,0.0;0.0;0.0;0.0;0.0;0.0;0.0;0.0;0.0,7.621289842063561e-05;0.0;0.0;0.0;7.621289842063561e-05;0.0;0.0;0.0;7.621289842063561e-05,3.999999975690116e-08;0.0;0.0;0.0;3.999999975690116e-08;0.0;0.0;0.0;3.999999975690116e-08
200,660000000,200.66,imu_link,0.019238945870964905,-0.012182416597989637,0.008129605957886752,-0.00018842085579223535,-5.9021703984199524e-05,9.79993259755984,-4.615570794148259e-10,5.330484785044506e-08,-4.989105571439298e-08,0.9999999999999973,0.0;0.0;0.0;0.0;0.0;0.0;0.0;0.0;0.0,7.621289842063561e-05;0.0;0.0;0.0;7.621289842063561e-05;0.0;0.0;0.0;7.621289842063561e-05,3.999999975690116e-08;0.0;0.0;0.0;3.999999975690116e-08;0.0;0.0;0.0;3.999999975690116e-08
200,680000000,200.68,imu_link,-0.006107575394222191,-0.0035310255743696514,-0.002770925578963241,0.0005481153876570776,-0.00024298752170437914,9.800338728521325,-4.615570793949399e-10,5.3304847850546414e-08,-4.989105571441039e-08,0.9999999999999973,0.0;0.0;0.0;0.0;0.0;0.0;0.0;0.0;0.0,7.621289842063561e-05;0.0;0.0;0.0;7.621289842063561e-05;0.0;0.0;0.0;7.621289842063561e-05,3.999999975690116e-08;0.0;0.0;0.0;3.999999975690116e-08;0.0;0.0;0.0;3.999999975690116e-08
200,700000000,200.7,imu_link,-0.006286626170855664,-5.029224038012358e-05,-0.012163559546999842,8.650959156747528e-05,-0.00010872208752405351,9.799932482938685,-4.6155707947383483e-10,5.3304847850593855e-08,-4.989105571442723e-08,0.9999999999999973,0.0;0.0;0.0;0.0;0.0;0.0;0.0;0.0;0.0,7.621289842063561e-05;0.0;0.0;0.0;7.621289842063561e-05;0.0;0.0;0.0;7.621289842063561e-05,3.999999975690116e-08;0.0;0.0;0.0;3.999999975690116e-08;0.0;0.0;0.0;3.999999975690116e-08
200,720000000,200.72,imu_link,0.014252151096338254,-0.007942230420813,0.004621160183563799,0.0005871901359924354,9.510798709563426e-05,9.800230687568504,-4.6155707954381116e-10,5.3304847850292456e-08,-4.989105571444435e-08,0.9999999999999973,0.0;0.0;0.0;0.0;0.0;0.0;0.0;0.0;0.0,7.621289842063561e-05;0.0;0.0;0.0;7.621289842063561e-05;0.0;0.0;0.0;7.621289842063561e-05,3.999999975690116e-08;0.0;0.0;0.0;3.999999975690116e-08;0.0;0.0;0.0;3.999999975690116e-08
200,740000000,200.74,imu_link,-0.009256618285332488,-5.274012175850228e-06,-0.004713134443619163,8.747975640948313e-05,0.00014043310931698228,9.80022427157539,-4.615570795231209e-10,5.330484785040207e-08,-4.9891055714460096e-08,0.9999999999999973,0.0;0.0;0.0;0.0;0.0;0.0;0.0;0.0;0.0,7.621289842063561e-05;0.0;0.0;0.0;7.621289842063561e-05;0.0;0.0;0.0;7.621289842063561e-05,3.999999975690116e-08;0.0;0.0;0.0;3.999999975690116e-08;0.0;0.0;0.0;3.999999975690116e-08
200,760000000,200.76,imu_link,-0.009221041613685685,-0.008808144170310053,-0.0013056365631757218,2.9619184971523533e-05,-0.00011578839033336491,9.800114753386161,-4.6155707946182614e-10,5.330484785068933e-08,-4.989105571447568e-08,0.9999999999999973,0.0;0.0;0.0;0.0;0.0;0.0;0.0;0.0;0.0,7.621289842063561e-05;0.0;0.0;0.0;7.621289842063561e-05;0.0;0.0;0.0;7.621289842063561e-05,3.999999975690116e-08;0.0;0.0;0.0;3.999999975690116e-08;0.0;0.0;0.0;3.999999975690116e-08
200,780000000,200.78,imu_link,0.004593140242681967,0.003933610702983983,0.008573909329211926,0.0004456367323499457,0.00017738988221840463,9.799977466001218,-4.61557079566827e-10,5.3304847850336145e-08,-4.989105571448961e-08,0.9999999999999973,0.0;0.0;0.0;0.0;0.0;0.0;0.0;0.0;0.0,7.621289842063561e-05;0.0;0.0;0.0;7.621289842063561e-05;0.0;0.0;0.0;7.621289842063561e-05,3.999999975690116e-08;0.0;0.0;0.0;3.999999975690116e-08;0.0;0.0;0.0;3.999999975690116e-08
200,800000000,200.8,imu_link,0.009462073786434329,0.007181800651312751,0.007929510658864065,2.6786046503412324e-05,0.00035086142008926784,9.800424074185376,-4.615570794035007e-10,5.330484785045705e-08,-4.989105571450638e-08,0.9999999999999973,0.0;0.0;0.0;0.0;0.0;0.0;0.0;0.0;0.0,7.621289842063561e-05;0.0;0.0;0.0;7.621289842063561e-05;0.0;0.0;0.0;7.621289842063561e-05,3.999999975690116e-08;0.0;0.0;0.0;3.999999975690116e-08;0.0;0.0;0.0;3.999999975690116e-08
200,820000000,200.82,imu_link,0.008704917573933388,0.0006345931649082778,0.0017372997596522926,0.00019458362406425838,-1.2811457770945943e-05,9.80023892793303,-4.615570794847152e-10,5.3304847850613654e-08,-4.989105571452261e-08,0.9999999999999973,0.0;0.0;0.0;0.0;0.0;0.0;0.0;0.0;0.0,7.621289842063561e-05;0.0;0.0;0.0;7.621289842063561e-05;0.0;0.0;0.0;7.621289842063561e-05,3.999999975690116e-08;0.0;0.0;0.0;3.999999975690116e-08;0.0;0.0;0.0;3.999999975690116e-08
200,840000000,200.84,imu_link,0.00784231881774283,-0.012276206218476356,0.0037791672298096695,-0.0004092343887300778,-9.040994007089645e-05,9.799868694636242,-4.6155707958536644e-10,5.330484785059989e-08,-4.989105571453839e-08,0.9999999999999973,0.0;0.0;0.0;0.0;0.0;0.0;0.0;0.0;0.0,7.621289842063561e-05;0.0;0.0;0.0;7.621289842063561e-05;0.0;0.0;0.0;7.621289842063561e-05,3.999999975690116e-08;0.0;0.0;0.0;3.999999975690116e-08;0.0;0.0;0.0;3.999999975690116e-08
200,860000000,200.86,imu_link,-0.0039647224646196955,0.0008724829701628374,0.002637723852335411,0.0005468497821067716,-0.00012025156824575396,9.800276583119325,-4.615570794330559e-10,5.3304847850390415e-08,-4.9891055714555784e-08,0.9999999999999973,0.0;0.0;0.0;0.0;0.0;0.0;0.0;0.0;0.0,7.621289842063561e-05;0.0;0.0;0.0;7.621289842063561e-05;0.0;0.0;0.0;7.621289842063561e-05,3.999999975690116e-08;0.0;0.0;0.0;3.999999975690116e-08;0.0;0.0;0.0;3.999999975690116e-08
200,880000000,200.88,imu_link,0.017326970676225763,-0.01183943907591215,0.00014114515267282313,-6.726893812347839e-05,0.0001087367654983419,9.799829398001952,-4.615570794079195e-10,5.33048478503909e-08,-4.989105571457289e-08,0.9999999999999973,0.0;0.0;0.0;0.0;0.0;0.0;0.0;0.0;0.0,7.621289842063561e-05;0.0;0.0;0.0;7.621289842063561e-05;0.0;0.0;0.0;7.621289842063561e-05,3.999999975690116e-08;0.0;0.0;0.0;3.999999975690116e-08;0.0;0.0;0.0;3.999999975690116e-08
200,900000000,200.9,imu_link,0.006550080756381348,0.0023401708461615444,-0.010794829433660651,1.991303483143877e-06,0.00013925048577877495,9.800196314308883,-4.6155707944146814e-10,5.33048478507365e-08,-4.989105571459099e-08,0.9999999999999973,0.0;0.0;0.0;0.0;0.0;0.0;0.0;0.0;0.0,7.621289842063561e-05;0.0;0.0;0.0;7.621289842063561e-05;0.0;0.0;0.0;7.621289842063561e-05,3.999999975690116e-08;0.0;0.0;0.0;3.999999975690116e-08;0.0;0.0;0.0;3.999999975690116e-08
200,920000000,200.92,imu_link,0.009094478030498045,-0.0021573423669310897,0.006514875539921398,5.122880436223619e-05,-0.00020389693951895015,9.80004603182952,-4.615570795533113e-10,5.330484785024754e-08,-4.989105571460902e-08,0.9999999999999973,0.0;0.0;0.0;0.0;0.0;0.0;0.0;0.0;0.0,7.621289842063561e-05;0.0;0.0;0.0;7.621289842063561e-05;0.0;0.0;0.0;7.621289842063561e-05,3.999999975690116e-08;0.0;0.0;0.0;3.999999975690116e-08;0.0;0.0;0.0;3.999999975690116e-08
200,940000000,200.94,imu_link,0.0012797188987618497,-0.016778921054993134,-0.008578749540956518,-7.707916400919977e-05,2.851990145774362e-05,9.799932682100549,-4.6155707961956116e-10,5.3304847850533226e-08,-4.989105571462766e-08,0.9999999999999973,0.0;0.0;0.0;0.0;0.0;0.0;0.0;0.0;0.0,7.621289842063561e-05;0.0;0.0;0.0;7.621289842063561e-05;0.0;0.0;0.0;7.621289842063561e-05,3.999999975690116e-08;0.0;0.0;0.0;3.999999975690116e-08;0.0;0.0;0.0;3.999999975690116e-08
200,960000000,200.96,imu_link,0.005200175051097091,-0.0031194960586653944,0.0026359958743739503,0.00035010387819373956,0.00043695862161450253,9.799761011230077,-4.615570795760069e-10,5.330484785064011e-08,-4.9891055714645973e-08,0.9999999999999973,0.0;0.0;0.0;0.0;0.0;0.0;0.0;0.0;0.0,7.621289842063561e-05;0.0;0.0;0.0;7.621289842063561e-05;0.0;0.0;0.0;7.621289842063561e-05,3.999999975690116e-08;0.0;0.0;0.0;3.999999975690116e-08;0.0;0.0;0.0;3.999999975690116e-08
200,980000000,200.98,imu_link,0.0126277453196618,0.003943308602946271,-0.00026019516421673576,-1.667011935483358e-05,0.00014741841555260585,9.799964887157865,-4.615570795056998e-10,5.330484785081605e-08,-4.989105571466721e-08,0.9999999999999973,0.0;0.0;0.0;0.0;0.0;0.0;0.0;0.0;0.0,7.621289842063561e-05;0.0;0.0;0.0;7.621289842063561e-05;0.0;0.0;0.0;7.621289842063561e-05,3.999999975690116e-08;0.0;0.0;0.0;3.999999975690116e-08;0.0;0.0;0.0;3.999999975690116e-08
201,0,201.0,imu_link,-0.018312164115719034,-0.003242657157397418,0.0013934632110789607,0.00010748367685113571,0.00029778379745034754,9.800086713708504,-4.6155707946396e-10,5.330484785033917e-08,-4.989105571468692e-08,0.9999999999999973,0.0;0.0;0.0;0.0;0.0;0.0;0.0;0.0;0.0,7.621289842063561e-05;0.0;0.0;0.0;7.621289842063561e-05;0.0;0.0;0.0;7.621289842063561e-05,3.999999975690116e-08;0.0;0.0;0.0;3.999999975690116e-08;0.0;0.0;0.0;3.999999975690116e-08
201,20000000,201.02,imu_link,-0.012082188334938172,-0.007351881136408673,0.0011262435814568955,0.00021175361413757816,3.771266433679943e-05,9.79998192415137,-4.615570794158414e-10,5.330484785044568e-08,-4.989105571470324e-08,0.9999999999999973,0.0;0.0;0.0;0.0;0.0;0.0;0.0;0.0;0.0,7.621289842063561e-05;0.0;0.0;0.0;7.621289842063561e-05;0.0;0.0;0.0;7.621289842063561e-05,3.999999975690116e-08;0.0;0.0;0.0;3.999999975690116e-08;0.0;0.0;0.0;3.999999975690116e-08
201,40000000,201.04,imu_link,0.008940408102508537,-0.009468583372189072,0.0015747802316922112,-0.00011075805489027936,0.00011639230608912215,9.799946720621332,-4.615570793471801e-10,5.330484785074329e-08,-4.9891055714720095e-08,0.9999999999999973,0.0;0.0;0.0;0.0;0.0;0.0;0.0;0.0;0.0,7.621289842063561e-05;0.0;0.0;0.0;7.621289842063561e-05;0.0;0.0;0.0;7.621289842063561e-05,3.999999975690116e-08;0.0;0.0;0.0;3.999999975690116e-08;0.0;0.0;0.0;3.999999975690116e-08
201,60000000,201.06,imu_link,0.016212287797771424,-0.00043582179485413946,0.0025593543890924868,0.00020989990099887614,-0.00013167679296393635,9.800089986361527,-4.6155707955794266e-10,5.3304847850317404e-08,-4.989105571473607e-08,0.9999999999999973,0.0;0.0;0.0;0.0;0.0;0.0;0.0;0.0;0.0,7.621289842063561e-05;0.0;0.0;0.0;7.621289842063561e-05;0.0;0.0;0.0;7.621289842063561e-05,3.999999975690116e-08;0.0;0.0;0.0;3.999999975690116e-08;0.0;0.0;0.0;3.999999975690116e-08
201,80000000,201.08,imu_link,0.00941197968939772,0.016765974490711932,0.012212373400604052,0.00020785611470238268,0.0003790113846572269,9.800061402917354,-4.6155707940142106e-10,5.330484785043329e-08,-4.989105571475383e-08,0.9999999999999973,0.0;0.0;0.0;0.0;0.0;0.0;0.0;0.0;0.0,7.621289842063561e-05;0.0;0.0;0.0;7.621289842063561e-05;0.0;0.0;0.0;7.621289842063561e-05,3.999999975690116e-08;0.0;0.0;0.0;3.999999975690116e-08;0.0;0.0;0.0;3.999999975690116e-08
201,100000000,201.1,imu_link,0.007746038382263363,0.006638372406164758,-0.014275283506314811,-2.693573403703096e-06,-0.0002139702116802915,9.799637912236525,-4.6155707948892845e-10,5.330484785059347e-08,-4.989105571476901e-08,0.9999999999999973,0.0;0.0;0.0;0.0;0.0;0.0;0.0;0.0;0.0,7.621289842063561e-05;0.0;0.0;0.0;7.621289842063561e-05;0.0;0.0;0.0;7.621289842063561e-05,3.999999975690116e-08;0.0;0.0;0.0;3.999999975690116e-08;0.0;0.0;0.0;3.999999975690116e-08
201,120000000,201.12,imu_link,0.004572792113513634,-0.007590700515062686,0.0033767010765383154,0.00024058601287338827,0.00021538488198196196,9.800067732876268,-4.6155707952118115e-10,5.330484785082465e-08,-4.989105571478549e-08,0.9999999999999973,0.0;0.0;0.0;0.0;0.0;0.0;0.0;0.0;0.0,7.621289842063561e-05;0.0;0.0;0.0;7.621289842063561e-05;0.0;0.0;0.0;7.621289842063561e-05,3.999999975690116e-08;0.0;0.0;0.0;3.999999975690116e-08;0.0;0.0;0.0;3.999999975690116e-08
201,140000000,201.14,imu_link,-0.0029161793626361152,-0.0038498550934697446,-0.014445837005146567,6.653907263001007e-05,0.00013083195063409895,9.800575315479563,-4.615570795139106e-10,5.330484785027788e-08,-4.989105571480146e-08,0.9999999999999973,0.0;0.0;0.0;0.0;0.0;0.0;0.0;0.0;0.0,7.621289842063561e-05;0.0;0.0;0.0;7.621289842063561e-05;0.0;0.0;0.0;7.621289842063561e-05,3.999999975690116e-08;0.0;0.0;0.0;3.999999975690116e-08;0.0;0.0;0.0;3.999999975690116e-08
201,160000000,201.16,imu_link,-0.0022379362242179574,0.004059765189113488,0.003918490127933057,2.7824996639274767e-06,0.000355028901635731,9.800044362679696,-4.615570796028789e-10,5.330484785043354e-08,-4.989105571481717e-08,0.9999999999999973,0.0;0.0;0.0;0.0;0.0;0.0;0.0;0.0;0.0,7.621289842063561e-05;0.0;0.0;0.0;7.621289842063561e-05;0.0;0.0;0.0;7.621289842063561e-05,3.999999975690116e-08;0.0;0.0;0.0;3.999999975690116e-08;0.0;0.0;0.0;3.999999975690116e-08
201,180000000,201.18,imu_link,-0.0021097439095191938,-0.013666306319543825,-0.00406474735168027,-0.00021653963122782033,1.1379634534007248e-05,9.800012375535859,-4.615570794011976e-10,5.330484785073504e-08,-4.9891055714832625e-08,0.9999999999999973,0.0;0.0;0.0;0.0;0.0;0.0;0.0;0.0;0.0,7.621289842063561e-05;0.0;0.0;0.0;7.621289842063561e-05;0.0;0.0;0.0;7.621289842063561e-05,3.999999975690116e-08;0.0;0.0;0.0;3.999999975690116e-08;0.0;0.0;0.0;3.999999975690116e-08
201,200000000,201.2,imu_link,-0.00814259094826639,0.01055934559611206,0.01243074956088554,-0.00043406243069105403,0.00013641613948534365,9.799589810769875,-4.615570794725736e-10,5.330484785031323e-08,-4.9891055714848494e-08,0.9999999999999973,0.0;0.0;0.0;0.0;0.0;0.0;0.0;0.0;0.0,7.621289842063561e-05;0.0;0.0;0.0;7.621289842063561e-05;0.0;0.0;0.0;7.621289842063561e-05,3.999999975690116e-08;0.0;0.0;0.0;3.999999975690116e-08;0.0;0.0;0.0;3.999999975690116e-08
201,220000000,201.22,imu_link,-0.0021660804121379274,0.0017399513864459915,-0.0027954432566118168,-0.00028806484672106163,0.0003245517305316485,9.799848031786627,-4.6155707944218127e-10,5.330484785041949e-08,-4.989105571486521e-08,0.9999999999999973,0.0;0.0;0.0;0.0;0.0;0.0;0.0;0.0;0.0,7.621289842063561e-05;0.0;0.0;0.0;7.621289842063561e-05;0.0;0.0;0.0;7.621289842063561e-05,3.999999975690116e-08;0.0;0.0;0.0;3.999999975690116e-08;0.0;0.0;0.0;3.999999975690116e-08
201,240000000,201.24,imu_link,-0.003665005014657604,-0.0026300641922056135,-0.007305139099075527,0.0004608182412243155,1.6506377965932757e-05,9.80042383821538,-4.61557079475401e-10,5.330484785065356e-08,-4.9891055714880866e-08,0.9999999999999973,0.0;0.0;0.0;0.0;0.0;0.0;0.0;0.0;0.0,7.621289842063561e-05;0.0;0.0;0.0;7.621289842063561e-05;0.0;0.0;0.0;7.621289842063561e-05,3.999999975690116e-08;0.0;0.0;0.0;3.999999975690116e-08;0.0;0.0;0.0;3.999999975690116e-08
201,260000000,201.26,imu_link,0.0018898752413632981,-0.005733071560277387,-0.003545118036588536,0.000178065586552051,3.48537901165592e-05,9.800104098358922,-4.6155707945331786e-10,5.3304847850769316e-08,-4.9891055714898336e-08,0.9999999999999973,0.0;0.0;0.0;0.0;0.0;0.0;0.0;0.0;0.0,7.621289842063561e-05;0.0;0.0;0.0;7.621289842063561e-05;0.0;0.0;0.0;7.621289842063561e-05,3.999999975690116e-08;0.0;0.0;0.0;3.999999975690116e-08;0.0;0.0;0.0;3.999999975690116e-08
201,280000000,201.28,imu_link,-0.0018197952792393037,-0.008236476972292244,-0.009282551759008282,0.00032569636991569974,7.102787178479669e-05,9.799905674463066,-4.6155707943028445e-10,5.330484785086284e-08,-4.9891055714913795e-08,0.9999999999999973,0.0;0.0;0.0;0.0;0.0;0.0;0.0;0.0;0.0,7.621289842063561e-05;0.0;0.0;0.0;7.621289842063561e-05;0.0;0.0;0.0;7.621289842063561e-05,3.999999975690116e-08;0.0;0.0;0.0;3.999999975690116e-08;0.0;0.0;0.0;3.999999975690116e-08
201,300000000,201.3,imu_link,0.003131621827686326,0.00958912260978158,0.0030130631557328184,0.0002833860750853764,3.13334747463774e-05,9.80017347832691,-4.615570794038375e-10,5.330484785049677e-08,-4.989105571492942e-08,0.9999999999999973,0.0;0.0;0.0;0.0;0.0;0.0;0.0;0.0;0.0,7.621289842063561e-05;0.0;0.0;0.0;7.621289842063561e-05;0.0;0.0;0.0;7.621289842063561e-05,3.999999975690116e-08;0.0;0.0;0.0;3.999999975690116e-08;0.0;0.0;0.0;3.999999975690116e-08
201,320000000,201.32,imu_link,0.0024477871281699064,0.013003748276914914,-0.0038116349058318396,0.00030498415158077485,0.00016935606775391235,9.800172443237425,-4.615570794932716e-10,5.330484785065011e-08,-4.98910557149464e-08,0.9999999999999973,0.0;0.0;0.0;0.0;0.0;0.0;0.0;0.0;0.0,7.621289842063561e-05;0.0;0.0;0.0;7.621289842063561e-05;0.0;0.0;0.0;7.621289842063561e-05,3.999999975690116e-08;0.0;0.0;0.0;3.999999975690116e-08;0.0;0.0;0.0;3.999999975690116e-08
201,340000000,201.34,imu_link,-0.00838088295368202,-0.014839585625788647,-0.009150308233712781,-0.00022656331340499723,0.000631423576578256,9.800098687287186,-4.615570793410214e-10,5.3304847850757325e-08,-4.989105571496412e-08,0.9999999999999973,0.0;0.0;0.0;0.0;0.0;0.0;0.0;0.0;0.0,7.621289842063561e-05;0.0;0.0;0.0;7.621289842063561e-05;0.0;0.0;0.0;7.621289842063561e-05,3.999999975690116e-08;0.0;0.0;0.0;3.999999975690116e-08;0.0;0.0;0.0;3.999999975690116e-08
201,360000000,201.36,imu_link,-0.003567984313922101,-0.0070651219812606905,-0.0026973128691866774,0.00032281569139616103,0.00017354285034135362,9.800089913978066,-4.6155707943809277e-10,5.330484785026767e-08,-4.9891055714977904e-08,0.9999999999999973,0.0;0.0;0.0;0.0;0.0;0.0;0.0;0.0;0.0,7.621289842063561e-05;0.0;0.0;0.0;7.621289842063561e-05;0.0;0.0;0.0;7.621289842063561e-05,3.999999975690116e-08;0.0;0.0;0.0;3.999999975690116e-08;0.0;0.0;0.0;3.999999975690116e-08
201,380000000,201.38,imu_link,-0.015807046202081402,0.008904546040816572,-0.0030304960477913665,-2.8507620726603828e-05,-0.0002847335105039129,9.800470155860056,-4.6155707945845605e-10,5.330484785061575e-08,-4.989105571499391e-08,0.9999999999999973,0.0;0.0;0.0;0.0;0.0;0.0;0.0;0.0;0.0,7.621289842063561e-05;0.0;0.0;0.0;7.621289842063561e-05;0.0;0.0;0.0;7.621289842063561e-05,3.999999975690116e-08;0.0;0.0;0.0;3.999999975690116e-08;0.0;0.0;0.0;3.999999975690116e-08
201,400000000,201.4,imu_link,0.005536928676160721,0.0037385100443654527,0.0043612222564819,0.00018751289298710508,0.0001809808050789223,9.80011433143946,-4.6155707953913056e-10,5.330484785076118e-08,-4.989105571501052e-08,0.9999999999999973,0.0;0.0;0.0;0.0;0.0;0.0;0.0;0.0;0.0,7.621289842063561e-05;0.0;0.0;0.0;7.621289842063561e-05;0.0;0.0;0.0;7.621289842063561e-05,3.999999975690116e-08;0.0;0.0;0.0;3.999999975690116e-08;0.0;0.0;0.0;3.999999975690116e-08
201,420000000,201.42,imu_link,-0.008449438666450431,-0.0030045354301717784,-0.012752460766709432,7.66491623763684e-06,-4.014446372142064e-05,9.800028109500172,-4.615570793738601e-10,5.330484785028718e-08,-4.989105571502503e-08,0.9999999999999973,0.0;0.0;0.0;0.0;0.0;0.0;0.0;0.0;0.0,7.621289842063561e-05;0.0;0.0;0.0;7.621289842063561e-05;0.0;0.0;0.0;7.621289842063561e-05,3.999999975690116e-08;0.0;0.0;0.0;3.999999975690116e-08;0.0;0.0;0.0;3.999999975690116e-08
201,440000000,201.44,imu_link,0.007489603696971569,0.00812839506867432,0.003964111967892445,9.509847720342432e-05,0.0001509246434958381,9.800014934757984,-4.615570795657677e-10,5.330484785050912e-08,-4.98910557150405e-08,0.9999999999999973,0.0;0.0;0.0;0.0;0.0;0.0;0.0;0.0;0.0,7.621289842063561e-05;0.0;0.0;0.0;7.621289842063561e-05;0.0;0.0;0.0;7.621289842063561e-05,3.999999975690116e-08;0.0;0.0;0.0;3.999999975690116e-08;0.0;0.0;0.0;3.999999975690116e-08
201,460000000,201.46,imu_link,-0.004933406724682945,-0.0031800517828807777,-0.003701446695999554,2.1779053936181133e-05,-2.4119812296937034e-06,9.80004339060249,-4.615570793982116e-10,5.3304847850616016e-08,-4.98910557150567e-08,0.9999999999999973,0.0;0.0;0.0;0.0;0.0;0.0;0.0;0.0;0.0,7.621289842063561e-05;0.0;0.0;0.0;7.621289842063561e-05;0.0;0.0;0.0;7.621289842063561e-05,3.999999975690116e-08;0.0;0.0;0.0;3.999999975690116e-08;0.0;0.0;0.0;3.999999975690116e-08
201,480000000,201.48,imu_link,-0.009489683682470999,-0.01850376868854652,0.011753052238701465,-0.0001151491963167571,5.923336038802166e-05,9.799927331733146,-4.6155707948384786e-10,5.330484785077763e-08,-4.989105571507386e-08,0.9999999999999973,0.0;0.0;0.0;0.0;0.0;0.0;0.0;0.0;0.0,7.621289842063561e-05;0.0;0.0;0.0;7.621289842063561e-05;0.0;0.0;0.0;7.621289842063561e-05,3.999999975690116e-08;0.0;0.0;0.0;3.999999975690116e-08;0.0;0.0;0.0;3.999999975690116e-08
201,500000000,201.5,imu_link,-0.012453750420156236,-0.017209992505243205,0.0059435449747376416,-0.00019967719251257196,0.00013559960993336328,9.799905392552803,-4.6155707945373455e-10,5.330484785087428e-08,-4.989105571508917e-08,0.9999999999999973,0.0;0.0;0.0;0.0;0.0;0.0;0.0;0.0;0.0,7.621289842063561e-05;0.0;0.0;0.0;7.621289842063561e-05;0.0;0.0;0.0;7.621289842063561e-05,3.999999975690116e-08;0.0;0.0;0.0;3.999999975690116e-08;0.0;0.0;0.0;3.999999975690116e-08
201,520000000,201.52,imu_link,0.0033550623574096607,-0.002034443503092021,-0.004224416797032755,1.1695477282225151e-05,0.00034963248931615704,9.800357869995002,-4.6155707942949713e-10,5.330484785051628e-08,-4.989105571510314e-08,0.9999999999999973,0.0;0.0;0.0;0.0;0.0;0.0;0.0;0.0;0.0,7.621289842063561e-05;0.0;0.0;0.0;7.621289842063561e-05;0.0;0.0;0.0;7.621289842063561e-05,3.999999975690116e-08;0.0;0.0;0.0;3.999999975690116e-08;0.0;0.0;0.0;3.999999975690116e-08
201,540000000,201.54,imu_link,0.010014572297573203,-0.013352096273578556,-0.006109532822912599,-0.00042642841026977835,-4.2384387677830125e-05,9.799992930645821,-4.6155707953029327e-10,5.3304847850515306e-08,-4.989105571511723e-08,0.9999999999999973,0.0;0.0;0.0;0.0;0.0;0.0;0.0;0.0;0.0,7.621289842063561e-05;0.0;0.0;0.0;7.621289842063561e-05;0.0;0.0;0.0;7.621289842063561e-05,3.999999975690116e-08;0.0;0.0;0.0;3.999999975690116e-08;0.0;0.0;0.0;3.999999975690116e-08
201,560000000,201.56,imu_link,0.0040332998443800725,-0.011814304378551008,0.002201856940129879,0.00021285849429664318,0.0002376237926479714,9.800313249205736,-4.615570797163599e-10,5.3304847850852054e-08,-4.989105571513307e-08,0.9999999999999973,0.0;0.0;0.0;0.0;0.0;0.0;0.0;0.0;0.0,7.621289842063561e-05;0.0;0.0;0.0;7.621289842063561e-05;0.0;0.0;0.0;7.621289842063561e-05,3.999999975690116e-08;0.0;0.0;0.0;3.999999975690116e-08;0.0;0.0;0.0;3.999999975690116e-08
201,580000000,201.58,imu_link,-0.002553176219169254,-0.004039318375473631,0.003149160344514259,0.0002546036841626513,-4.270652207862842e-06,9.80024410956651,-4.6155707955717204e-10,5.33048478504989e-08,-4.989105571514634e-08,0.9999999999999973,0.0;0.0;0.0;0.0;0.0;0.0;0.0;0.0;0.0,7.621289842063561e-05;0.0;0.0;0.0;7.621289842063561e-05;0.0;0.0;0.0;7.621289842063561e-05,3.999999975690116e-08;0.0;0.0;0.0;3.999999975690116e-08;0.0;0.0;0.0;3.999999975690116e-08
201,600000000,201.6,imu_link,-0.005703790262763618,-0.004246882452256934,0.0027993366404655776,0.0002524673055915036,8.52164557346891e-05,9.800406515103685,-4.6155707937657716e-10,5.3304847850609875e-08,-4.989105571516159e-08,0.9999999999999973,0.0;0.0;0.0;0.0;0.0;0.0;0.0;0.0;0.0,7.621289842063561e-05;0.0;0.0;0.0;7.621289842063561e-05;0.0;0.0;0.0;7.621289842063561e-05,3.999999975690116e-08;0.0;0.0;0.0;3.999999975690116e-08;0.0;0.0;0.0;3.999999975690116e-08
201,620000000,201.62,imu_link,-0.005759388675830835,-0.004467244254405366,0.0016304138634379314,-1.0178399326571657e-06,0.00016849265701778307,9.800123526904482,-4.615570794672672e-10,5.3304847850778634e-08,-4.989105571517746e-08,0.9999999999999973,0.0;0.0;0.0;0.0;0.0;0.0;0.0;0.0;0.0,7.621289842063561e-05;0.0;0.0;0.0;7.621289842063561e-05;0.0;0.0;0.0;7.621289842063561e-05,3.999999975690116e-08;0.0;0.0;0.0;3.999999975690116e-08;0.0;0.0;0.0;3.999999975690116e-08
201,640000000,201.64,imu_link,0.0043845322028577185,0.005674440345153875,0.001988649941638491,0.00015012228284504002,-5.885106430043086e-05,9.800346832917299,-4.61557079438829e-10,5.3304847850886736e-08,-4.989105571519148e-08,0.9999999999999973,0.0;0.0;0.0;0.0;0.0;0.0;0.0;0.0;0.0,7.621289842063561e-05;0.0;0.0;0.0;7.621289842063561e-05;0.0;0.0;0.0;7.621289842063561e-05,3.999999975690116e-08;0.0;0.0;0.0;3.999999975690116e-08;0.0;0.0;0.0;3.999999975690116e-08
201,660000000,201.66,imu_link,-0.0009828072363725062,0.02894864885412942,-0.0066893271054861625,3.797388299796157e-05,8.995543973995445e-05,9.800111096344098,-4.615570794260728e-10,5.330484785052936e-08,-4.989105571520544e-08,0.9999999999999973,0.0;0.0;0.0;0.0;0.0;0.0;0.0;0.0;0.0,7.621289842063561e-05;0.0;0.0;0.0;7.621289842063561e-05;0.0;0.0;0.0;7.621289842063561e-05,3.999999975690116e-08;0.0;0.0;0.0;3.999999975690116e-08;0.0;0.0;0.0;3.999999975690116e-08
201,680000000,201.68,imu_link,-0.00710741157972804,-0.004333672644886004,-0.00500938220890967,0.00011466341605800544,-0.0003160554475719915,9.800097469419098,-4.6155707955407477e-10,5.330484785062788e-08,-4.989105571522055e-08,0.9999999999999973,0.0;0.0;0.0;0.0;0.0;0.0;0.0;0.0;0.0,7.621289842063561e-05;0.0;0.0;0.0;7.621289842063561e-05;0.0;0.0;0.0;7.621289842063561e-05,3.999999975690116e-08;0.0;0.0;0.0;3.999999975690116e-08;0.0;0.0;0.0;3.999999975690116e-08
201,700000000,201.7,imu_link,0.00821807890882839,0.0024526295098976983,-0.013439392464309035,-3.426621519335364e-05,-9.065075454344252e-06,9.800278474971648,-4.615570793789181e-10,5.330484785027481e-08,-4.989105571523395e-08,0.9999999999999973,0.0;0.0;0.0;0.0;0.0;0.0;0.0;0.0;0.0,7.621289842063561e-05;0.0;0.0;0.0;7.621289842063561e-05;0.0;0.0;0.0;7.621289842063561e-05,3.999999975690116e-08;0.0;0.0;0.0;3.999999975690116e-08;0.0;0.0;0.0;3.999999975690116e-08
201,720000000,201.72,imu_link,0.008520823099175156,0.002316399339791524,-0.010772704763899812,0.0002246283136222672,0.00034470342112819825,9.800076143397634,-4.6155707959466896e-10,5.3304847850308616e-08,-4.989105571524762e-08,0.9999999999999973,0.0;0.0;0.0;0.0;0.0;0.0;0.0;0.0;0.0,7.621289842063561e-05;0.0;0.0;0.0;7.621289842063561e-05;0.0;0.0;0.0;7.621289842063561e-05,3.999999975690116e-08;0.0;0.0;0.0;3.999999975690116e-08;0.0;0.0;0.0;3.999999975690116e-08
201,740000000,201.74,imu_link,-0.003499074945798077,0.0005476679244141143,-0.006948408613393505,0.0002633502929382976,-0.00015597721381078067,9.799914000613272,-4.615570793897817e-10,5.3304847850615983e-08,-4.9891055715260966e-08,0.9999999999999973,0.0;0.0;0.0;0.0;0.0;0.0;0.0;0.0;0.0,7.621289842063561e-05;0.0;0.0;0.0;7.621289842063561e-05;0.0;0.0;0.0;7.621289842063561e-05,3.999999975690116e-08;0.0;0.0;0.0;3.999999975690116e-08;0.0;0.0;0.0;3.999999975690116e-08
201,760000000,201.76,imu_link,0.005960695565863794,-0.015012977480954091,-0.006907253957657478,-0.00013880303213005795,0.00033835002324541553,9.799840896052379,-4.6155707947496347e-10,5.3304847850774484e-08,-4.9891055715275617e-08,0.9999999999999973,0.0;0.0;0.0;0.0;0.0;0.0;0.0;0.0;0.0,7.621289842063561e-05;0.0;0.0;0.0;7.621289842063561e-05;0.0;0.0;0.0;7.621289842063561e-05,3.999999975690116e-08;0.0;0.0;0.0;3.999999975690116e-08;0.0;0.0;0.0;3.999999975690116e-08
201,780000000,201.78,imu_link,0.0007790183054438778,-0.007481605051591639,0.0065548047492394465,-0.0001055381889585031,-7.535295048098787e-05,9.800026688220257,-4.615570794533839e-10,5.3304847850878636e-08,-4.989105571528973e-08,0.9999999999999973,0.0;0.0;0.0;0.0;0.0;0.0;0.0;0.0;0.0,7.621289842063561e-05;0.0;0.0;0.0;7.621289842063561e-05;0.0;0.0;0.0;7.621289842063561e-05,3.999999975690116e-08;0.0;0.0;0.0;3.999999975690116e-08;0.0;0.0;0.0;3.999999975690116e-08
201,800000000,201.8,imu_link,0.010176188647091279,-0.0020681145344025186,0.005786499812782254,-0.0003651173860950866,0.0001916733524505969,9.800114316679583,-4.6155707943804945e-10,5.3304847850523405e-08,-4.989105571530391e-08,0.9999999999999973,0.0;0.0;0.0;0.0;0.0;0.0;0.0;0.0;0.0,7.621289842063561e-05;0.0;0.0;0.0;7.621289842063561e-05;0.0;0.0;0.0;7.621289842063561e-05,3.999999975690116e-08;0.0;0.0;0.0;3.999999975690116e-08;0.0;0.0;0.0;3.999999975690116e-08
201,820000000,201.82,imu_link,-0.0021002983326049328,-0.008320961075557,-0.003945207232352327,0.00019998941964948159,-3.643286879908562e-05,9.799909974510621,-4.615570795544421e-10,5.330484785062468e-08,-4.989105571531759e-08,0.9999999999999973,0.0;0.0;0.0;0.0;0.0;0.0;0.0;0.0;0.0,7.621289842063561e-05;0.0;0.0;0.0;7.621289842063561e-05;0.0;0.0;0.0;7.621289842063561e-05,3.999999975690116e-08;0.0;0.0;0.0;3.999999975690116e-08;0.0;0.0;0.0;3.999999975690116e-08
201,840000000,201.84,imu_link,-0.0009699391764880046,-0.0045265579447577664,0.0057849435662157955,0.00037277154103564926,-0.00020580587714222649,9.79987959518918,-4.6155707949217017e-10,5.3304847850811694e-08,-4.989105571533027e-08,0.9999999999999973,0.0;0.0;0.0;0.0;0.0;0.0;0.0;0.0;0.0,7.621289842063561e-05;0.0;0.0;0.0;7.621289842063561e-05;0.0;0.0;0.0;7.621289842063561e-05,3.999999975690116e-08;0.0;0.0;0.0;3.999999975690116e-08;0.0;0.0;0.0;3.999999975690116e-08
201,860000000,201.86,imu_link,-0.001539710179470034,-0.005061404075285398,-0.009212634366801043,-0.00013616738370584772,0.0003668078826276535,9.799997539787464,-4.6155707946451256e-10,5.330484785046016e-08,-4.989105571534291e-08,0.9999999999999973,0.0;0.0;0.0;0.0;0.0;0.0;0.0;0.0;0.0,7.621289842063561e-05;0.0;0.0;0.0;7.621289842063561e-05;0.0;0.0;0.0;7.621289842063561e-05,3.999999975690116e-08;0.0;0.0;0.0;3.999999975690116e-08;0.0;0.0;0.0;3.999999975690116e-08
201,880000000,201.88,imu_link,0.0056642785103054785,0.010392690461863384,-0.0061163487867651216,0.00043587496917905206,-5.6029426479053775e-05,9.800177354186989,-4.61557079644282e-10,5.330484785068533e-08,-4.9891055715357455e-08,0.9999999999999973,0.0;0.0;0.0;0.0;0.0;0.0;0.0;0.0;0.0,7.621289842063561e-05;0.0;0.0;0.0;7.621289842063561e-05;0.0;0.0;0.0;7.621289842063561e-05,3.999999975690116e-08;0.0;0.0;0.0;3.999999975690116e-08;0.0;0.0;0.0;3.999999975690116e-08
201,900000000,201.9,imu_link,-0.003238497166409321,0.003669777164564416,0.0009298740913980984,-0.00023146428458042448,2.278394350832247e-05,9.800147502489716,-4.615570793732376e-10,5.330484785074879e-08,-4.9891055715369505e-08,0.9999999999999973,0.0;0.0;0.0;0.0;0.0;0.0;0.0;0.0;0.0,7.621289842063561e-05;0.0;0.0;0.0;7.621289842063561e-05;0.0;0.0;0.0;7.621289842063561e-05,3.999999975690116e-08;0.0;0.0;0.0;3.999999975690116e-08;0.0;0.0;0.0;3.999999975690116e-08
201,920000000,201.92,imu_link,0.007252071774428882,-0.0019301277636815893,0.009145486221453341,0.00028720098532538903,0.0005135676767356683,9.800379625716465,-4.6155707949944895e-10,5.33048478502572e-08,-4.989105571538261e-08,0.9999999999999973,0.0;0.0;0.0;0.0;0.0;0.0;0.0;0.0;0.0,7.621289842063561e-05;0.0;0.0;0.0;7.621289842063561e-05;0.0;0.0;0.0;7.621289842063561e-05,3.999999975690116e-08;0.0;0.0;0.0;3.999999975690116e-08;0.0;0.0;0.0;3.999999975690116e-08
201,940000000,201.94,imu_link,-0.0015814690090949122,-0.0012180241635383322,0.0029861003128104917,0.00037565605520575293,-0.00013332569986942104,9.799990356024248,-4.6155707954172253e-10,5.330484785060318e-08,-4.989105571539713e-08,0.9999999999999973,0.0;0.0;0.0;0.0;0.0;0.0;0.0;0.0;0.0,7.621289842063561e-05;0.0;0.0;0.0;7.621289842063561e-05;0.0;0.0;0.0;7.621289842063561e-05,3.999999975690116e-08;0.0;0.0;0.0;3.999999975690116e-08;0.0;0.0;0.0;3.999999975690116e-08
201,960000000,201.96,imu_link,0.02016160686186405,0.0035353201343190123,0.004950617819961862,5.1992798105270714e-05,0.00020606819040161928,9.800237465522798,-4.6155707941509534e-10,5.3304847850654755e-08,-4.9891055715410024e-08,0.9999999999999973,0.0;0.0;0.0;0.0;0.0;0.0;0.0;0.0;0.0,7.621289842063561e-05;0.0;0.0;0.0;7.621289842063561e-05;0.0;0.0;0.0;7.621289842063561e-05,3.999999975690116e-08;0.0;0.0;0.0;3.999999975690116e-08;0.0;0.0;0.0;3.999999975690116e-08
201,980000000,201.98,imu_link,-0.010772821896718705,-0.01075137676887647,0.010019444071219722,-0.0001412502291738238,0.00012582183220414652,9.800339966331363,-4.6155707939773386e-10,5.3304847850302925e-08,-4.9891055715422286e-08,0.9999999999999973,0.0;0.0;0.0;0.0;0.0;0.0;0.0;0.0;0.0,7.621289842063561e-05;0.0;0.0;0.0;7.621289842063561e-05;0.0;0.0;0.0;7.621289842063561e-05,3.999999975690116e-08;0.0;0.0;0.0;3.999999975690116e-08;0.0;0.0;0.0;3.999999975690116e-08
202,0,202.0,imu_link,0.010486584428307293,0.009784994188868393,0.006832385853582168,0.0004939737913583188,0.00013696116130647358,9.799572186864314,-4.615570795227361e-10,5.330484785028918e-08,-4.989105571543568e-08,0.9999999999999973,0.0;0.0;0.0;0.0;0.0;0.0;0.0;0.0;0.0,7.621289842063561e-05;0.0;0.0;0.0;7.621289842063561e-05;0.0;0.0;0.0;7.621289842063561e-05,3.999999975690116e-08;0.0;0.0;0.0;3.999999975690116e-08;0.0;0.0;0.0;3.999999975690116e-08
202,20000000,202.02,imu_link,-0.0010444766109985086,-0.011563128922588987,0.015316526145116017,0.0004286893627279631,0.00034144005913816077,9.800203819989067,-4.6155707961074196e-10,5.330484785058583e-08,-4.989105571545044e-08,0.9999999999999973,0.0;0.0;0.0;0.0;0.0;0.0;0.0;0.0;0.0,7.621289842063561e-05;0.0;0.0;0.0;7.621289842063561e-05;0.0;0.0;0.0;7.621289842063561e-05,3.999999975690116e-08;0.0;0.0;0.0;3.999999975690116e-08;0.0;0.0;0.0;3.999999975690116e-08
202,40000000,202.04,imu_link,0.002496196518593291,0.015958058858500903,0.006819254752558912,0.0005481298443417626,0.00010086932422722265,9.800013610495967,-4.6155707968128305e-10,5.3304847850869345e-08,-4.9891055715463704e-08,0.9999999999999973,0.0;0.0;0.0;0.0;0.0;0.0;0.0;0.0;0.0,7.621289842063561e-05;0.0;0.0;0.0;7.621289842063561e-05;0.0;0.0;0.0;7.621289842063561e-05,3.999999975690116e-08;0.0;0.0;0.0;3.999999975690116e-08;0.0;0.0;0.0;3.999999975690116e-08
202,60000000,202.06,imu_link,-0.0074982281922487395,-0.0055058266661416255,0.007754559791519964,0.0001484864205562325,-6.553681622953268e-05,9.799976381322253,-4.615570794564264e-10,5.330484785026932e-08,-4.989105571547854e-08,0.9999999999999973,0.0;0.0;0.0;0.0;0.0;0.0;0.0;0.0;0.0,7.621289842063561e-05;0.0;0.0;0.0;7.621289842063561e-05;0.0;0.0;0.0;7.621289842063561e-05,3.999999975690116e-08;0.0;0.0;0.0;3.999999975690116e-08;0.0;0.0;0.0;3.999999975690116e-08
202,80000000,202.08,imu_link,0.0001787446512397668,0.009338106057483258,-0.004581266288087071,0.00033220884349080624,0.00027739939877860124,9.800119185259536,-4.615570793943079e-10,5.3304847850557995e-08,-4.989105571549203e-08,0.9999999999999973,0.0;0.0;0.0;0.0;0.0;0.0;0.0;0.0;0.0,7.621289842063561e-05;0.0;0.0;0.0;7.621289842063561e-05;0.0;0.0;0.0;7.621289842063561e-05,3.999999975690116e-08;0.0;0.0;0.0;3.999999975690116e-08;0.0;0.0;0.0;3.999999975690116e-08
202,100000000,202.1,imu_link,0.0037744878735860945,0.020135838650126896,-0.01393623213640942,0.0002249515376260192,0.00030114133604140704,9.800128430250652,-4.615570793907135e-10,5.3304847850544475e-08,-4.9891055715505785e-08,0.9999999999999973,0.0;0.0;0.0;0.0;0.0;0.0;0.0;0.0;0.0,7.621289842063561e-05;0.0;0.0;0.0;7.621289842063561e-05;0.0;0.0;0.0;7.621289842063561e-05,3.999999975690116e-08;0.0;0.0;0.0;3.999999975690116e-08;0.0;0.0;0.0;3.999999975690116e-08
202,120000000,202.12,imu_link,-0.0031080348929469984,-0.008430291924576994,-0.0035647877924366743,2.093539221807165e-05,0.00011236463542139182,9.800377330831868,-4.615570794684743e-10,5.33048478502522e-08,-4.9891055715518933e-08,0.9999999999999973,0.0;0.0;0.0;0.0;0.0;0.0;0.0;0.0;0.0,7.621289842063561e-05;0.0;0.0;0.0;7.621289842063561e-05;0.0;0.0;0.0;7.621289842063561e-05,3.999999975690116e-08;0.0;0.0;0.0;3.999999975690116e-08;0.0;0.0;0.0;3.999999975690116e-08
202,140000000,202.14,imu_link,0.009595762139056016,-0.009283010231763443,0.000559900836918497,0.0002280102101582123,0.00011993228094542504,9.799874437796584,-4.6155707953216735e-10,5.33048478504258e-08,-4.9891055715531646e-08,0.9999999999999973,0.0;0.0;0.0;0.0;0.0;0.0;0.0;0.0;0.0,7.621289842063561e-05;0.0;0.0;0.0;7.621289842063561e-05;0.0;0.0;0.0;7.621289842063561e-05,3.999999975690116e-08;0.0;0.0;0.0;3.999999975690116e-08;0.0;0.0;0.0;3.999999975690116e-08
202,160000000,202.16,imu_link,0.008153837748549738,-0.0003662510756608009,-0.01658427470570557,-0.00026698395839229824,-0.00011999478178917156,9.800258608009369,-4.61557079383363e-10,5.330484785053701e-08,-4.98910557155456e-08,0.9999999999999973,0.0;0.0;0.0;0.0;0.0;0.0;0.0;0.0;0.0,7.621289842063561e-05;0.0;0.0;0.0;7.621289842063561e-05;0.0;0.0;0.0;7.621289842063561e-05,3.999999975690116e-08;0.0;0.0;0.0;3.999999975690116e-08;0.0;0.0;0.0;3.999999975690116e-08
202,180000000,202.18,imu_link,0.021605127356717643,-0.0134975921485403,0.0004779315601788261,-0.00024701459696484327,-3.021075668236535e-05,9.799928923476816,-4.615570797070731e-10,5.330484785087014e-08,-4.989105571555875e-08,0.9999999999999973,0.0;0.0;0.0;0.0;0.0;0.0;0.0;0.0;0.0,7.621289842063561e-05;0.0;0.0;0.0;7.621289842063561e-05;0.0;0.0;0.0;7.621289842063561e-05,3.999999975690116e-08;0.0;0.0;0.0;3.999999975690116e-08;0.0;0.0;0.0;3.999999975690116e-08
202,200000000,202.2,imu_link,-0.0014019496575806238,0.017433447557777842,0.004235958310100755,-8.121939123818881e-05,3.0951330478411735e-05,9.800223352245757,-4.6155707956455e-10,5.330484785040906e-08,-4.9891055715573276e-08,0.9999999999999973,0.0;0.0;0.0;0.0;0.0;0.0;0.0;0.0;0.0,7.621289842063561e-05;0.0;0.0;0.0;7.621289842063561e-05;0.0;0.0;0.0;7.621289842063561e-05,3.999999975690116e-08;0.0;0.0;0.0;3.999999975690116e-08;0.0;0.0;0.0;3.999999975690116e-08
202,220000000,202.22,imu_link,-0.012219537718841237,-0.011194905473998203,0.010977746527799016,-1.590415109628833e-05,0.000219140074961008,9.799646757184256,-4.6155707939967494e-10,5.33048478505112e-08,-4.989105571558646e-08,0.9999999999999973,0.0;0.0;0.0;0.0;0.0;0.0;0.0;0.0;0.0,7.621289842063561e-05;0.0;0.0;0.0;7.621289842063561e-05;0.0;0.0;0.0;7.621289842063561e-05,3.999999975690116e-08;0.0;0.0;0.0;3.999999975690116e-08;0.0;0.0;0.0;3.999999975690116e-08
202,240000000,202.24,imu_link,0.004672347530947948,0.005258152291516353,-0.004003012366773631,0.00018620406245382643,0.0003196099248536162,9.799952296709055,-4.6155707948636274e-10,5.330484785066725e-08,-4.9891055715598826e-08,0.9999999999999973,0.0;0.0;0.0;0.0;0.0;0.0;0.0;0.0;0.0,7.621289842063561e-05;0.0;0.0;0.0;7.621289842063561e-05;0.0;0.0;0.0;7.621289842063561e-05,3.999999975690116e-08;0.0;0.0;0.0;3.999999975690116e-08;0.0;0.0;0.0;3.999999975690116e-08
202,260000000,202.26,imu_link,-0.01260420442735945,-0.0070209645094683375,0.0007303189926204246,0.00033337259712850974,-0.00043525879367416296,9.800158541763413,-4.615570795895634e-10,5.3304847850299246e-08,-4.989105571560911e-08,0.9999999999999973,0.0;0.0;0.0;0.0;0.0;0.0;0.0;0.0;0.0,7.621289842063561e-05;0.0;0.0;0.0;7.621289842063561e-05;0.0;0.0;0.0;7.621289842063561e-05,3.999999975690116e-08;0.0;0.0;0.0;3.999999975690116e-08;0.0;0.0;0.0;3.999999975690116e-08
202,280000000,202.28,imu_link,0.0029524266758341033,-0.004558386077533345,-0.019947001571298487,0.00048778434423242214,9.235027815931006e-05,9.800579444101036,-4.615570796773097e-10,5.3304847850935096e-08,-4.989105571562189e-08,0.9999999999999973,0.0;0.0;0.0;0.0;0.0;0.0;0.0;0.0;0.0,7.621289842063561e-05;0.0;0.0;0.0;7.621289842063561e-05;0.0;0.0;0.0;7.621289842063561e-05,3.999999975690116e-08;0.0;0.0;0.0;3.999999975690116e-08;0.0;0.0;0.0;3.999999975690116e-08
